Folder: CompositeTensileTests/DMA

File: PASA5050 - 1Hz(1).csv
Angular frequency,Step time,Temperature,Oscillation strain,Oscillation stress,Tan(delta),Storage modulus,Loss modulus
rad/s,s,Celsius,%,MPa,,MPa,MPa
6.28319,880.004,40.07,0.0915892,1.58650,0.0335911,1731.21,58.1534
6.28319,898.004,40.34,0.0915774,1.58587,0.0335518,1730.75,58.0697
6.28319,916.004,40.75,0.0915807,1.58538,0.0335827,1730.16,58.1034
6.28319,934.004,41.25,0.0915851,1.58474,0.0336215,1729.37,58.1441
6.28319,952.004,41.81,0.0915879,1.58398,0.0336058,1728.49,58.0871
6.28319,970.004,42.43,0.0915942,1.58311,0.0336334,1727.42,58.0991
6.28319,988.004,43.06,0.0915960,1.58210,0.0336610,1726.28,58.1082
6.28319,1006.00,43.69,0.0916010,1.58106,0.0336822,1725.05,58.1036
6.28319,1024.00,44.44,0.0915945,1.57958,0.0336676,1723.56,58.0280
6.28319,1042.00,45.19,0.0915943,1.57802,0.0336941,1721.86,58.0165
6.28319,1060.00,45.96,0.0915980,1.57646,0.0337584,1720.08,58.0671
6.28319,1078.00,46.75,0.0915981,1.57466,0.0338350,1718.11,58.1323
6.28319,1096.00,47.60,0.0915886,1.57265,0.0339208,1716.09,58.2111
6.28319,1114.00,48.49,0.0915918,1.57081,0.0340328,1714.02,58.3329
6.28319,1132.00,49.34,0.0915989,1.56895,0.0340834,1711.86,58.3458
6.28319,1150.00,49.95,0.0915991,1.56681,0.0341786,1709.52,58.4289
6.28319,1168.00,50.80,0.0916015,1.56433,0.0342881,1706.76,58.5213
6.28319,1186.00,51.71,0.0916060,1.56182,0.0343278,1703.92,58.4920
6.28319,1204.00,52.76,0.0916050,1.55923,0.0343616,1701.12,58.4531
6.28319,1222.00,53.56,0.0915996,1.55615,0.0344082,1697.86,58.4201
6.28319,1240.00,54.59,0.0916029,1.55309,0.0345169,1694.45,58.4873
6.28319,1258.00,55.43,0.0916025,1.54996,0.0346553,1691.04,58.6034
6.28319,1276.00,56.31,0.0916056,1.54657,0.0347722,1687.27,58.6701
6.28319,1294.00,57.23,0.0916083,1.54302,0.0349136,1683.34,58.7716
6.28319,1312.00,57.76,0.0916199,1.53907,0.0349582,1678.82,58.6885
6.28319,1330.00,59.09,0.0916030,1.53421,0.0351435,1673.82,58.8238
6.28319,1348.00,60.19,0.0915737,1.52901,0.0353181,1668.66,58.9340
6.28319,1366.00,60.30,0.0915996,1.52419,0.0356562,1662.91,59.2931
6.28319,1384.00,61.68,0.0916274,1.51912,0.0360346,1656.85,59.7040
6.28319,1402.00,62.91,0.0916261,1.51339,0.0362747,1650.62,59.8756
6.28319,1420.00,63.66,0.0916818,1.50787,0.0365784,1643.58,60.1197
6.28319,1438.00,64.54,0.0916269,1.50100,0.0367256,1637.06,60.1222
6.28319,1456.00,65.39,0.0915941,1.49316,0.0372229,1629.06,60.6385
6.28319,1474.00,66.11,0.0915738,1.48438,0.0377317,1619.81,61.1180
6.28319,1492.00,66.87,0.0915888,1.47529,0.0384836,1609.58,61.9425
6.28319,1510.00,67.78,0.0915649,1.46439,0.0394040,1598.05,62.9694
6.28319,1528.00,68.97,0.0915743,1.45360,0.0402080,1586.06,63.7724
6.28319,1546.00,70.14,0.0916180,1.44221,0.0413720,1572.82,65.0705
6.28319,1564.00,71.01,0.0916743,1.42999,0.0426271,1558.45,66.4321
6.28319,1582.00,71.69,0.0916693,1.41591,0.0444756,1543.06,68.6285
6.28319,1600.00,72.59,0.0916409,1.40091,0.0466305,1527.03,71.2062
6.28319,1618.00,73.78,0.0916312,1.38530,0.0491947,1510.00,74.2838
6.28319,1636.00,74.88,0.0916262,1.36932,0.0521556,1492.44,77.8390
6.28319,1654.00,75.66,0.0916361,1.35272,0.0555064,1473.91,81.8116
6.28319,1672.00,76.32,0.0916776,1.33627,0.0591444,1455.03,86.0571
6.28319,1690.00,77.11,0.0916846,1.31804,0.0633994,1434.70,90.9590
6.28319,1708.00,78.03,0.0916627,1.29835,0.0681565,1413.16,96.3161
6.28319,1726.00,79.02,0.0916449,1.27714,0.0735732,1389.82,102.253
6.28319,1744.00,79.98,0.0916527,1.25454,0.0798888,1364.45,109.004
6.28319,1762.00,80.89,0.0916834,1.22997,0.0870436,1336.49,116.333
6.28319,1780.00,81.76,0.0916919,1.20219,0.0954225,1305.19,124.545
6.28319,1798.00,82.60,0.0917017,1.17173,0.105135,1270.75,133.601
6.28319,1816.00,83.42,0.0917197,1.13771,0.116512,1232.09,143.553
6.28319,1834.00,84.36,0.0917344,1.10082,0.129341,1190.09,153.927
6.28319,1852.00,86.64,0.0917223,1.06012,0.143816,1144.02,164.528
6.28319,1870.00,87.33,0.0917123,1.01647,0.160039,1094.40,175.146
6.28319,1888.00,87.09,0.0918611,0.970369,0.178447,1039.92,185.570
6.28319,1906.00,87.62,0.0917778,0.916059,0.200169,978.712,195.908
6.28319,1924.00,88.42,0.0918142,0.858805,0.224736,912.610,205.096
6.28319,1942.00,89.31,0.0918135,0.797178,0.252397,841.857,212.483
6.28319,1960.00,90.23,0.0918080,0.731830,0.283301,766.948,217.277
6.28319,1978.00,91.16,0.0917965,0.663721,0.317594,689.116,218.859
6.28319,1996.00,92.08,0.0917737,0.594358,0.355116,610.295,216.726
6.28319,2014.00,93.00,0.0917446,0.525562,0.395202,532.758,210.547
6.28319,2032.00,93.94,0.0917105,0.459624,0.436699,459.284,200.569
6.28319,2050.00,94.90,0.0916839,0.398525,0.478039,392.168,187.472
6.28319,2068.00,95.85,0.0916627,0.343394,0.518418,332.591,172.421
6.28319,2086.00,96.95,0.0916170,0.292655,0.558751,278.855,155.811
6.28319,2104.00,97.71,0.0915983,0.246273,0.599457,230.602,138.236
6.28319,2122.00,98.49,0.0916067,0.203616,0.641649,187.073,120.035
6.28319,2140.00,99.31,0.0915835,0.167973,0.681126,151.587,103.250
6.28319,2158.00,100.45,0.0915835,0.138076,0.717111,122.519,87.8596
6.28319,2176.00,101.57,0.0915660,0.112769,0.750018,98.5242,73.8950
6.28319,2194.00,104.27,0.0915701,0.0923611,0.778135,79.6033,61.9421
6.28319,2212.00,104.80,0.0915993,0.0789307,0.791161,67.5775,53.4647
6.28319,2230.00,105.20,0.0915710,0.0666197,0.792791,57.0097,45.1968
6.28319,2248.00,105.24,0.0915854,0.0551582,0.784827,47.3772,37.1829
6.28319,2266.00,106.79,0.0915909,0.0476476,0.766199,41.2945,31.6398
6.28319,2284.00,107.49,0.0915663,0.0427801,0.745434,37.4582,27.9226
6.28319,2302.00,107.62,0.0915708,0.0384205,0.715997,34.1143,24.4257
6.28319,2320.00,107.80,0.0916087,0.0341215,0.676243,30.8543,20.8650
6.28319,2338.00,108.63,0.0916006,0.0304015,0.629096,28.0925,17.6729
6.28319,2356.00,110.50,0.0915892,0.0273200,0.578095,25.8242,14.9289
6.28319,2374.00,110.55,0.0915750,0.0247265,0.524772,23.9092,12.5469
6.28319,2392.00,112.25,0.0915887,0.0226597,0.473323,22.3623,10.5846
6.28319,2410.00,113.34,0.0915938,0.0209822,0.425953,21.0756,8.97720
6.28319,2428.00,114.11,0.0915988,0.0195733,0.380271,19.9732,7.59521
6.28319,2446.00,114.84,0.0915814,0.0183425,0.335063,18.9910,6.36318
6.28319,2464.00,115.14,0.0915749,0.0174170,0.295808,18.2382,5.39499
6.28319,2482.00,115.82,0.0916040,0.0166316,0.264793,17.5511,4.64741
6.28319,2500.00,117.78,0.0915834,0.0160109,0.238015,17.0072,4.04797
6.28319,2518.00,118.63,0.0915892,0.0154764,0.213161,16.5263,3.52276
6.28319,2536.00,119.43,0.0915883,0.0149979,0.188938,16.0907,3.04014
6.28319,2554.00,119.29,0.0915819,0.0146172,0.168256,15.7396,2.64828
6.28319,2572.00,121.03,0.0916011,0.0142874,0.150284,15.4242,2.31801
6.28319,2590.00,122.51,0.0915861,0.0140188,0.135041,15.1690,2.04843
6.28319,2608.00,123.08,0.0915881,0.0137699,0.120125,14.9272,1.79314
6.28319,2626.00,123.02,0.0915897,0.0135712,0.106463,14.7342,1.56864
6.28319,2644.00,125.18,0.0915975,0.0134169,0.0952556,14.5816,1.38898
6.28319,2662.00,126.05,0.0915840,0.0133011,0.0852765,14.4708,1.23402
6.28319,2680.00,125.91,0.0915888,0.0131856,0.0758505,14.3552,1.08885
6.28319,2698.00,127.62,0.0916021,0.0131088,0.0677447,14.2779,0.967252
6.28319,2716.00,128.99,0.0915879,0.0130477,0.0611198,14.2195,0.869096
6.28319,2734.00,129.16,0.0915923,0.0129920,0.0546450,14.1635,0.773964
6.28319,2752.00,129.88,0.0915870,0.0129673,0.0497254,14.1410,0.703167
6.28319,2770.00,131.88,0.0915788,0.0129530,0.0452857,14.1296,0.639871
6.28319,2788.00,132.32,0.0915998,0.0129158,0.0411172,14.0884,0.579273
6.28319,2806.00,132.21,0.0915847,0.0129215,0.0378538,14.0987,0.533687
6.28319,2824.00,134.53,0.0915977,0.0129092,0.0350622,14.0848,0.493843
6.28319,2842.00,135.33,0.0915987,0.0128926,0.0331190,14.0673,0.465895
6.28319,2860.00,135.26,0.0915770,0.0129232,0.0310749,14.1051,0.438314
6.28319,2878.00,136.43,0.0915987,0.0129211,0.0289655,14.1003,0.408421
6.28319,2896.00,138.35,0.0915778,0.0129262,0.0278722,14.1095,0.393262
6.28319,2914.00,138.91,0.0916012,0.0129558,0.0267905,14.1386,0.378781
6.28319,2932.00,138.90,0.0915791,0.0129688,0.0258320,14.1566,0.365694
6.28319,2950.00,139.73,0.0916088,0.0129645,0.0248285,14.1476,0.351264
6.28319,2968.00,141.81,0.0915848,0.0129879,0.0245536,14.1770,0.348095
6.28319,2986.00,142.70,0.0915923,0.0130066,0.0239784,14.1964,0.340408
6.28319,3004.00,143.33,0.0915956,0.0130340,0.0232464,14.2260,0.330704
6.28319,3022.00,143.66,0.0915649,0.0130304,0.0233963,14.2269,0.332856
6.28319,3040.00,143.95,0.0915902,0.0130562,0.0229080,14.2513,0.326469
6.28319,3058.00,145.04,0.0916204,0.0130905,0.0221096,14.2842,0.315820
6.28319,3076.00,146.20,0.0915731,0.0131092,0.0224854,14.3120,0.321810
6.28319,3094.00,147.79,0.0915748,0.0131127,0.0221785,14.3156,0.317498
6.28319,3112.00,148.47,0.0916225,0.0131238,0.0220238,14.3203,0.315389
6.28319,3130.00,148.88,0.0916121,0.0131370,0.0215850,14.3365,0.309453

File: Sn_Pristine_AllData.xlsx - 10 Hz.csv
Angular frequency,Step time,Temperature,Oscillation strain,Oscillation stress,Tan(delta),Storage modulus,Loss modulus
rad/s,s,Celsius,%,MPa,,MPa,MPa
62.8318,879.848,40.05,0.0191369,0.341814,0.0100546,1786.07,17.9582
62.8318,894.848,40.26,0.019141,0.341843,0.0100565,1785.83,17.9592
62.8318,909.848,40.58,0.0191478,0.341892,0.0100593,1785.45,17.9604
62.8318,924.848,40.97,0.0191583,0.341969,0.01008,1784.88,17.9916
62.8318,939.848,41.4,0.0191726,0.342071,0.0100552,1784.08,17.9393
62.8318,954.848,41.88,0.0191896,0.342199,0.0100543,1783.16,17.9284
62.8318,969.848,42.39,0.0192085,0.342342,0.0100268,1782.16,17.8693
62.8318,984.848,42.91,0.0192268,0.342479,0.0100205,1781.17,17.8482
62.8318,999.848,43.44,0.0192442,0.342609,0.0100186,1780.23,17.8355
62.8318,1014.85,44.05,0.0192605,0.342733,0.0100418,1779.37,17.8681
62.8318,1029.85,44.68,0.0192792,0.342874,0.0100571,1778.38,17.8854
62.8318,1044.85,45.31,0.0193022,0.343041,0.0100608,1777.13,17.8794
62.8318,1059.85,45.95,0.0193305,0.343254,0.010098,1775.62,17.9302
62.8318,1074.85,46.58,0.0193592,0.343471,0.0101228,1774.11,17.959
62.8318,1089.85,47.24,0.0193857,0.34367,0.0101548,1772.71,18.0016
62.8318,1104.85,47.93,0.0194136,0.343879,0.0101805,1771.24,18.0321
62.8318,1119.85,48.74,0.0194471,0.344134,0.010234,1769.49,18.109
62.8318,1134.85,49.43,0.0194825,0.344398,0.0102744,1767.64,18.1613
62.8318,1149.85,49.98,0.019516,0.34465,0.0102978,1765.89,18.1848
62.8318,1164.85,50.56,0.019552,0.344912,0.0103447,1763.98,18.2479
62.8318,1179.85,51.51,0.0195897,0.345202,0.0103789,1762.07,18.2882
62.8318,1194.85,52.21,0.0196284,0.34549,0.0104302,1760.06,18.3577
62.8318,1209.85,52.88,0.0196724,0.345811,0.0104846,1757.75,18.4293
62.8318,1224.85,53.7,0.019726,0.346205,0.0105207,1754.98,18.4636
62.8318,1239.85,54.47,0.0197825,0.346627,0.0105736,1752.09,18.5259
62.8318,1254.85,55.18,0.019831,0.346996,0.0106622,1749.66,18.6554
62.8318,1269.85,55.96,0.0198784,0.347342,0.0106932,1747.23,18.6836
62.8318,1284.85,56.72,0.0199286,0.347719,0.0107703,1744.72,18.7912
62.8318,1299.85,57.47,0.0199812,0.348109,0.0108777,1742.08,18.9499
62.8318,1314.85,58.21,0.0200367,0.348514,0.0109177,1739.28,18.989
62.8318,1329.85,58.96,0.0200964,0.34895,0.0110032,1736.28,19.1045
62.8318,1344.85,59.69,0.0201545,0.34939,0.0110971,1733.45,19.2363
62.8318,1359.85,60.42,0.0202212,0.349867,0.011236,1730.09,19.4393
62.8318,1374.85,60.75,0.0203081,0.350498,0.0112972,1725.8,19.4966
62.8318,1389.85,61.52,0.020393,0.351103,0.0112781,1721.58,19.4161
62.8318,1404.85,62.22,0.0204697,0.351655,0.0112084,1717.82,19.2541
62.8318,1419.85,63.18,0.0205534,0.352305,0.011482,1713.98,19.68
62.8318,1434.85,64.07,0.0206259,0.352852,0.0119303,1710.6,20.4079
62.8318,1449.85,65.25,0.0207034,0.353417,0.0121463,1706.92,20.7327
62.8318,1464.85,65.47,0.0208177,0.354215,0.0122242,1701.39,20.798
62.8318,1479.85,66.43,0.0209353,0.355075,0.0122622,1695.93,20.7958
62.8318,1494.85,67.81,0.021015,0.355679,0.0126466,1692.36,21.4026
62.8318,1509.85,68.48,0.021115,0.35639,0.0129693,1687.71,21.8883
62.8318,1524.85,68.08,0.0212114,0.357042,0.01304,1683.11,21.9478
62.8318,1539.85,70.06,0.0213201,0.35782,0.0131729,1678.17,22.1064
62.8318,1554.85,69.9,0.0214525,0.358734,0.0132735,1672.07,22.1943
62.8318,1569.85,71.38,0.0215602,0.359577,0.0139618,1667.62,23.283
62.8318,1584.85,72.26,0.0216826,0.360456,0.0139307,1662.26,23.1565
62.8318,1599.85,72.77,0.0217982,0.361227,0.0141089,1656.97,23.3781
62.8318,1614.85,72.78,0.0219299,0.362132,0.0147631,1651.14,24.3759
62.8318,1629.85,74.06,0.0220893,0.363338,0.0154599,1644.66,25.4263
62.8318,1644.85,75.51,0.0222171,0.364229,0.0156814,1639.21,25.7052
62.8318,1659.85,75.97,0.0223462,0.365053,0.015706,1633.43,25.6547
62.8318,1674.85,76.65,0.022509,0.366167,0.0163803,1626.54,26.6432
62.8318,1689.85,77.78,0.0227031,0.367558,0.0170099,1618.75,27.5347
62.8318,1704.85,78.21,0.0228564,0.368657,0.0175861,1612.68,28.3607
62.8318,1719.85,78.26,0.0230392,0.369863,0.0178835,1605.11,28.705
62.8318,1734.85,78.82,0.0232409,0.371288,0.0194007,1597.26,30.988
62.8318,1749.85,80.59,0.0234299,0.372643,0.0201719,1590.13,32.076
62.8318,1764.85,81.04,0.0236154,0.373741,0.0202746,1582.29,32.0802
62.8318,1779.85,81.27,0.0238983,0.37573,0.0217966,1571.83,34.2606
62.8318,1794.85,81.61,0.0241537,0.377498,0.023197,1562.48,36.245
62.8318,1809.85,82.37,0.0244502,0.379363,0.0244743,1551.11,37.9622
62.8318,1824.85,83.37,0.0248891,0.382284,0.0263654,1535.41,40.4818
62.8318,1839.85,84.15,0.025302,0.385055,0.0291206,1521.19,44.298
62.8318,1854.85,84.6,0.0258991,0.388928,0.0325485,1500.91,48.8525
62.8318,1869.85,85.71,0.0265171,0.392824,0.0364513,1480.42,53.9631
62.8318,1884.85,86.42,0.0273448,0.398182,0.0416659,1454.89,60.6194
62.8318,1899.85,87.15,0.0282363,0.403695,0.0477557,1428.07,68.1986
62.8318,2070.35,96.62,0.0666733,0.589737,0.236993,860.678,203.975
62.8318,2119.35,99.96,0.0909112,0.616288,0.340993,641.623,218.789
62.8318,2134.35,100.01,0.0911419,0.562161,0.376904,577.163,217.535
62.8318,2149.35,100.06,0.0909811,0.508849,0.413292,516.886,213.625
62.8318,2164.35,100.61,0.091034,0.458754,0.451812,459.239,207.49
62.8318,2179.35,101.18,0.0910277,0.409586,0.493491,403.499,199.123
62.8318,2194.35,103.62,0.0909505,0.365683,0.534189,354.639,189.445
62.8318,2209.35,102.96,0.0912331,0.323849,0.578188,307.301,177.677
62.8318,2224.35,103.57,0.0910523,0.283819,0.624465,264.392,165.104
62.8318,2239.35,104.13,0.0910159,0.247483,0.671381,225.752,151.565
62.8318,2254.35,104.85,0.0909352,0.214207,0.719061,191.25,137.521
62.8318,2269.35,105.56,0.0907944,0.184078,0.766422,160.916,123.33
62.8318,2284.35,106.31,0.0906879,0.157246,0.812158,134.595,109.313
62.8318,2299.35,107.04,0.090565,0.13342,0.854195,112.016,95.6836
62.8318,2314.35,107.81,0.0904436,0.112573,0.889942,92.9795,82.7463
62.8318,2329.35,108.71,0.0903178,0.0946319,0.915676,77.2747,70.7585
62.8318,2344.35,109.62,0.0901937,0.0795928,0.927934,64.6871,60.0254
62.8318,2359.35,110.42,0.090111,0.0669917,0.925118,54.5723,50.4858
62.8318,2374.35,111.07,0.0900519,0.0566718,0.905892,46.6403,42.2511
62.8318,2389.35,111.83,0.0900185,0.0481889,0.871294,40.3612,35.1664
62.8318,2404.35,112.63,0.0900003,0.0413898,0.824405,35.4847,29.2538
62.8318,2419.35,113.4,0.0899885,0.0359241,0.767935,31.6619,24.3143
62.8318,2434.35,114.3,0.0899843,0.0315868,0.707269,28.659,20.2696
62.8318,2449.35,115.11,0.0899849,0.0281918,0.646153,26.3141,17.003
62.8318,2464.35,115.81,0.0899857,0.0254991,0.586726,24.4406,14.34
62.8318,2479.35,116.63,0.089988,0.0233574,0.531093,22.9238,12.1747
62.8318,2494.35,117.44,0.0899879,0.021622,0.478978,21.6701,10.3795
62.8318,2509.35,118.14,0.0899911,0.0202356,0.432818,20.6363,8.93175
62.8318,2524.35,118.82,0.089994,0.0190949,0.390757,19.7627,7.72244
62.8318,2539.35,119.73,0.0899937,0.0180986,0.34974,18.9835,6.63928
62.8318,2554.35,121.68,0.0899977,0.01736,0.318399,18.3802,5.85224
62.8318,2569.35,123.36,0.0900007,0.0168507,0.295444,17.9556,5.30486
62.8318,2584.35,122.69,0.0900013,0.0164829,0.280169,17.635,4.94079
62.8318,2599.35,124.46,0.0900015,0.0160497,0.258782,17.264,4.46761
62.8318,2614.35,125.01,0.0899987,0.0157609,0.244908,17.0097,4.16581
62.8318,2629.35,124.99,0.0900001,0.0154737,0.231052,16.7517,3.87052
62.8318,2644.35,125.72,0.0900002,0.0152573,0.220138,16.5561,3.64464
62.8318,2659.35,126.31,0.0899999,0.0150402,0.207692,16.3622,3.39831
62.8318,2674.35,126.79,0.0900009,0.014844,0.197773,16.1798,3.19993
62.8318,2689.35,127.27,0.0899997,0.0146711,0.187918,16.0208,3.01061
62.8318,2704.35,127.78,0.0900007,0.0145043,0.177996,15.8664,2.82415
62.8318,2719.35,128.32,0.0900002,0.0143484,0.16771,15.723,2.63691
62.8318,2734.35,128.82,0.0900005,0.0142,0.1572,15.5862,2.45016
62.8318,2749.35,129.49,0.0899999,0.014064,0.146979,15.4605,2.27237
62.8318,2764.35,129.71,0.0899986,0.0139254,0.135077,15.3337,2.07123
62.8318,2779.35,130.5,0.0899998,0.0138143,0.125985,15.2288,1.91861
62.8318,2794.35,131.62,0.0899996,0.013722,0.116648,15.1441,1.76652
62.8318,2809.35,132.4,0.0899993,0.0136303,0.107271,15.0585,1.61534
62.8318,2824.35,133.12,0.089998,0.0135569,0.0984544,14.9911,1.47594
62.8318,2839.35,133.44,0.0899992,0.0134887,0.0905863,14.9265,1.35213
62.8318,2854.35,134.01,0.0899999,0.0134356,0.0834954,14.8767,1.24213
62.8318,2869.35,134.58,0.0899991,0.0133931,0.0763291,14.8382,1.13259
62.8318,2884.35,136.05,0.0899993,0.0133562,0.0702022,14.8039,1.03927
62.8318,2899.35,137.23,0.0899999,0.013329,0.0642048,14.7795,0.948917
62.8318,2914.35,138.09,0.0899995,0.0133051,0.0588977,14.758,0.869212
62.8318,2929.35,138.82,0.0899993,0.013292,0.0537317,14.7477,0.792421
62.8318,2944.35,139.33,0.0900002,0.0132822,0.0497361,14.7398,0.7331
62.8318,2959.35,139.73,0.0899999,0.0132784,0.0455538,14.7386,0.671397
62.8318,2974.35,140.27,0.0899992,0.0132782,0.0419464,14.7407,0.618318
62.8318,2989.35,141.18,0.0899998,0.0132817,0.0387577,14.7464,0.571535
62.8318,3004.35,142.5,0.0899992,0.0132908,0.0362139,14.758,0.534444
62.8318,3019.35,143.81,0.0900005,0.0132998,0.0337565,14.7691,0.498552
62.8318,3034.35,144.86,0.0899996,0.0133106,0.0314776,14.7823,0.465312
62.8318,3049.35,145.7,0.0900002,0.0133263,0.0299441,14.8003,0.443182
62.8318,3064.35,146.39,0.0900001,0.013343,0.0280121,14.8198,0.415132
62.8318,3079.35,146.91,0.0900004,0.0133578,0.0265687,14.8366,0.394191
62.8318,3094.35,147.4,0.0900009,0.0133731,0.0251671,14.8542,0.373837
62.8318,3109.35,148.13,0.0900007,0.0133923,0.0241586,14.8759,0.359379
62.8318,3124.35,148.9,0.0899998,0.0134164,0.0232422,14.9031,0.346381
62.8318,3127.35,148.84,0.0900008,0.0134173,0.023038,14.904,0.343358