Folder: CompositeTensileTests/DestructiveTests/Tensile/FIBERGLASS TENSILE.is_qtest_Exports (part 2)

File: FIBERGLASS TENSILE_4.csv
Time,Displacement,Force
(s),(mm),(kN)
"0.0000","-1.1786","0.0243"
"0.9000","-1.1673","0.0623"
"1.8000","-1.1525","0.1028"
"2.7000","-1.1374","0.1813"
"3.6000","-1.1223","0.2634"
"4.5000","-1.1071","0.3440"
"5.4000","-1.0921","0.4238"
"6.3000","-1.0773","0.5012"
"7.2000","-1.0624","0.5753"
"8.1000","-1.0474","0.6499"
"9.0000","-1.0323","0.7266"
"9.9000","-1.0173","0.8029"
"10.8000","-1.0023","0.8797"
"11.7000","-0.9869","0.9575"
"12.6000","-0.9720","1.0333"
"13.5000","-0.9575","1.1062"
"14.4000","-0.9426","1.1814"
"15.3000","-0.9273","1.2585"
"16.2000","-0.9121","1.3344"
"17.1000","-0.8971","1.4093"
"18.0000","-0.8824","1.4819"
"18.9000","-0.8671","1.5587"
"19.8000","-0.8522","1.6322"
"20.7000","-0.8374","1.7043"
"21.6000","-0.8226","1.7750"
"22.5000","-0.8074","1.8494"
"23.4000","-0.7918","1.9252"
"24.3000","-0.7769","1.9970"
"25.2000","-0.7624","2.0656"
"26.1000","-0.7474","2.1365"
"27.0000","-0.7321","2.2089"
"27.9000","-0.7174","2.2776"
"28.8000","-0.7025","2.3470"
"29.7000","-0.6874","2.4164"
"30.6000","-0.6717","2.4894"
"31.5000","-0.6571","2.5564"
"32.4000","-0.6425","2.6233"
"33.3000","-0.6275","2.6894"
"34.2000","-0.6123","2.7588"
"35.1000","-0.5972","2.8266"
"36.0000","-0.5823","2.8927"
"36.9000","-0.5673","2.9587"
"37.8000","-0.5518","3.0287"
"38.7000","-0.5371","3.0911"
"39.6000","-0.5225","3.1542"
"40.5000","-0.5076","3.2175"
"41.4000","-0.4922","3.2842"
"42.3000","-0.4770","3.3505"
"43.2000","-0.4622","3.4120"
"44.1000","-0.4474","3.4733"
"45.0000","-0.4321","3.5380"
"45.9000","-0.4172","3.5985"
"46.8000","-0.4025","3.6587"
"47.7000","-0.3876","3.7184"
"48.6000","-0.3721","3.7832"
"49.5000","-0.3568","3.8454"
"50.4000","-0.3421","3.9045"
"51.3000","-0.3275","3.9603"
"52.2000","-0.3123","4.0072"
"53.1000","-0.2972","4.0605"
"54.0000","-0.2823","4.1143"
"54.9000","-0.2675","4.1695"
"55.8000","-0.2521","4.2293"
"56.7000","-0.2367","4.2885"
"57.6000","-0.2223","4.3384"
"58.5000","-0.2076","4.3935"
"59.4000","-0.1924","4.4485"
"60.3000","-0.1772","4.5041"
"61.2000","-0.1622","4.5598"
"62.1000","-0.1472","4.6124"
"63.0000","-0.1322","4.6681"
"63.9000","-0.1168","4.7243"
"64.8000","-0.1023","4.7718"
"65.7000","-0.0875","4.8235"
"66.6000","-0.0726","4.8746"
"67.5000","-0.0571","4.9288"
"68.4000","-0.0419","4.9812"
"69.3000","-0.0272","5.0305"
"70.2000","-0.0123","5.0804"
"71.1000","0.0029","5.1314"
"72.0000","0.0177","5.1805"
"72.9000","0.0325","5.2309"
"73.8000","0.0475","5.2811"
"74.7000","0.0631","5.3360"
"75.6000","0.0781","5.3858"
"76.5000","0.0927","5.4333"
"77.4000","0.1075","5.4794"
"78.3000","0.1227","5.5304"
"79.2000","0.1378","5.5798"
"80.1000","0.1526","5.6280"
"81.0000","0.1676","5.6755"
"81.9000","0.1831","5.7271"
"82.8000","0.1981","5.7746"
"83.7000","0.2126","5.8206"
"84.6000","0.2274","5.8664"
"85.5000","0.2427","5.9169"
"86.4000","0.2579","5.9644"
"87.3000","0.2729","6.0109"
"88.2000","0.2877","6.0561"
"89.1000","0.3030","6.1052"
"90.0000","0.3178","6.1499"
"90.9000","0.3326","6.1925"
"91.8000","0.3473","6.2353"
"92.7000","0.3626","6.2811"
"93.6000","0.3780","6.3276"
"94.5000","0.3930","6.3724"
"95.4000","0.4076","6.4128"
"96.3000","0.4226","6.4570"
"97.2000","0.4377","6.5003"
"98.1000","0.4527","6.5446"
"99.0000","0.4674","6.5872"
"99.9000","0.4826","6.6322"
"100.8000","0.4983","6.6799"
"101.7000","0.5129","6.7201"
"102.6000","0.5275","6.7605"
"103.5000","0.5425","6.8023"
"104.4000","0.5578","6.8478"
"105.3000","0.5728","6.8900"
"106.2000","0.5876","6.9289"
"107.1000","0.6028","6.9722"
"108.0000","0.6183","7.0169"
"108.9000","0.6329","7.0554"
"109.8000","0.6475","7.0951"
"110.7000","0.6624","7.1365"
"111.6000","0.6778","7.1807"
"112.5000","0.6929","7.2225"
"113.4000","0.7078","7.2650"
"114.3000","0.7228","7.3073"
"115.2000","0.7381","7.3507"
"116.1000","0.7528","7.3912"
"117.0000","0.7675","7.4325"
"117.9000","0.7824","7.4734"
"118.8000","0.7979","7.5193"
"119.7000","0.8131","7.5634"
"120.6000","0.8279","7.6048"
"121.5000","0.8425","7.6453"
"122.4000","0.8579","7.6894"
"123.3000","0.8728","7.7318"
"124.2000","0.8876","7.7725"
"125.1000","0.9025","7.8145"
"126.0000","0.9179","7.8581"
"126.9000","0.9332","7.9009"
"127.8000","0.9476","7.9376"
"128.7000","0.9625","7.9780"
"129.6000","0.9776","8.0197"
"130.5000","0.9927","8.0621"
"131.4000","1.0077","8.1034"
"132.3000","1.0226","8.1444"
"133.2000","1.0379","8.1873"
"134.1000","1.0532","8.2313"
"135.0000","1.0677","8.2702"
"135.9000","1.0825","8.3100"
"136.8000","1.0974","8.3515"
"137.7000","1.1128","8.3967"
"138.6000","1.1281","8.4377"
"139.5000","1.1428","8.4779"
"140.4000","1.1577","8.5193"
"141.3000","1.1727","8.5607"
"142.2000","1.1877","8.6024"
"143.1000","1.2025","8.6419"
"144.0000","1.2174","8.6826"
"144.9000","1.2329","8.7269"
"145.8000","1.2481","8.7702"
"146.7000","1.2628","8.8102"
"147.6000","1.2775","8.8493"
"148.5000","1.2928","8.8910"
"149.4000","1.3078","8.9315"
"150.3000","1.3226","8.9711"
"151.2000","1.3375","9.0110"
"152.1000","1.3532","9.0558"
"153.0000","1.3681","9.0913"
"153.9000","1.3826","9.1258"
"154.8000","1.3974","9.1648"
"155.7000","1.4127","9.2079"
"156.6000","1.4278","9.2487"
"157.5000","1.4428","9.2889"
"158.4000","1.4576","9.3279"
"159.3000","1.4732","9.3716"
"160.2000","1.4879","9.4095"
"161.1000","1.5026","9.4477"
"162.0000","1.5174","9.4864"
"162.9000","1.5326","9.5292"
"163.8000","1.5481","9.5724"
"164.7000","1.5630","9.6123"
"165.6000","1.5777","9.6507"
"166.5000","1.5928","9.6919"
"167.4000","1.6079","9.7335"
"168.3000","1.6226","9.7726"
"169.2000","1.6374","9.8109"
"170.1000","1.6526","9.8495"
"171.0000","1.6682","9.8911"
"171.9000","1.6830","9.9301"
"172.8000","1.6976","9.9665"
"173.7000","1.7125","10.0066"
"174.6000","1.7278","10.0484"
"175.5000","1.7428","10.0878"
"176.4000","1.7576","10.1267"
"177.3000","1.7727","10.1677"
"178.2000","1.7884","10.2116"
"179.1000","1.8029","10.2498"
"180.0000","1.8175","10.2872"
"180.9000","1.8324","10.3279"
"181.8000","1.8478","10.3695"
"182.7000","1.8628","10.4106"
"183.6000","1.8778","10.4509"
"184.5000","1.8927","10.4908"
"185.4000","1.9082","10.5345"
"186.3000","1.9228","10.5716"
"187.2000","1.9375","10.6099"
"188.1000","1.9524","10.6492"
"189.0000","1.9679","10.6917"
"189.9000","1.9831","10.7337"
"190.8000","1.9979","10.7711"
"191.7000","2.0126","10.8086"
"192.6000","2.0279","10.8482"
"193.5000","2.0427","10.8861"
"194.4000","2.0575","10.9224"
"195.3000","2.0724","10.9592"
"196.2000","2.0879","10.9988"
"197.1000","2.1032","11.0368"
"198.0000","2.1178","11.0707"
"198.9000","2.1325","11.1041"
"199.8000","2.1477","11.1404"
"200.7000","2.1627","11.1754"
"201.6000","2.1777","11.2116"
"202.5000","2.1926","11.2448"
"203.4000","2.2080","11.2804"
"204.3000","2.2232","11.3143"
"205.2000","2.2377","11.3457"
"206.1000","2.2524","11.3808"
"207.0000","2.2675","11.4192"
"207.9000","2.2829","11.4583"
"208.8000","2.2980","11.4970"
"209.7000","2.3128","11.5320"
"210.6000","2.3278","11.5691"
"211.5000","2.3430","11.6077"
"212.4000","2.3576","11.6436"
"213.3000","2.3725","11.6808"
"214.2000","2.3875","11.7189"
"215.1000","2.4030","11.7603"
"216.0000","2.4181","11.7990"
"216.9000","2.4327","11.8353"
"217.8000","2.4476","11.8712"
"218.7000","2.4629","11.9112"
"219.6000","2.4776","11.9460"
"220.5000","2.4925","11.9837"
"221.4000","2.5075","12.0196"
"222.3000","2.5232","12.0625"
"223.2000","2.5381","12.0992"
"224.1000","2.5526","12.1330"
"225.0000","2.5675","12.1713"
"225.9000","2.5827","12.2094"
"226.8000","2.5976","12.2470"
"227.7000","2.6127","12.2842"
"228.6000","2.6277","12.3222"
"229.5000","2.6432","12.3617"
"230.4000","2.6580","12.3974"
"231.3000","2.6726","12.4308"
"232.2000","2.6873","12.4668"
"233.1000","2.7027","12.5047"
"234.0000","2.7179","12.5437"
"234.9000","2.7329","12.5805"
"235.8000","2.7477","12.6162"
"236.7000","2.7629","12.6553"
"237.6000","2.7779","12.6921"
"238.5000","2.7926","12.7287"
"239.4000","2.8074","12.7646"
"240.3000","2.8227","12.8046"
"241.2000","2.8381","12.8454"
"242.1000","2.8531","12.8834"
"243.0000","2.8676","12.9184"
"243.9000","2.8825","12.9562"
"244.8000","2.8979","12.9974"
"245.7000","2.9127","13.0351"
"246.6000","2.9275","13.0720"
"247.5000","2.9427","13.1115"
"248.4000","2.9583","13.1536"
"249.3000","2.9729","13.1908"
"250.2000","2.9875","13.2265"
"251.1000","3.0025","13.2660"
"252.0000","3.0178","13.3054"
"252.9000","3.0328","13.3440"
"253.8000","3.0478","13.3820"
"254.7000","3.0628","13.4201"
"255.6000","3.0783","13.4609"
"256.5000","3.0928","13.4971"
"257.4000","3.1075","13.5336"
"258.3000","3.1223","13.5706"
"259.2000","3.1379","13.6118"
"260.1000","3.1530","13.6474"
"260.2310","3.1550","10.9431"
"260.2390","3.1553","7.8594"