Folder: CompositeTensileTests/DestructiveTests/Tensile/FIBERGLASS TENSILE.is_qtest_Exports

File: FIBERGLASS TENSILE_1.csv
Time,Displacement,Force
(s),(mm),(kN)
"0.0000","0.0000","-0.0004"
"1.1000","0.0160","0.0007"
"2.2000","0.0339","0.0007"
"3.3000","0.0523","0.0012"
"4.4000","0.0710","0.0016"
"5.5000","0.0894","0.0018"
"6.6000","0.1074","0.0024"
"7.7000","0.1256","0.0022"
"8.8000","0.1443","0.0031"
"9.9000","0.1628","0.0028"
"11.0000","0.1808","0.0030"
"12.1000","0.1991","0.0030"
"13.2000","0.2174","0.0034"
"14.3000","0.2356","0.0033"
"15.4000","0.2539","0.0031"
"16.5000","0.2725","0.0034"
"17.6000","0.2913","0.0035"
"18.7000","0.3093","0.0032"
"19.8000","0.3274","0.0041"
"20.9000","0.3457","0.0123"
"22.0000","0.3641","0.0417"
"23.1000","0.3824","0.0936"
"24.2000","0.4007","0.1615"
"25.3000","0.4197","0.2236"
"26.4000","0.4377","0.2829"
"27.5000","0.4557","0.3421"
"28.6000","0.4739","0.4037"
"29.7000","0.4925","0.4700"
"30.8000","0.5107","0.5347"
"31.9000","0.5291","0.6018"
"33.0000","0.5479","0.6722"
"34.1000","0.5662","0.7406"
"35.2000","0.5840","0.8067"
"36.3000","0.6022","0.8775"
"37.4000","0.6208","0.9500"
"38.5000","0.6391","1.0222"
"39.6000","0.6574","1.0933"
"40.7000","0.6760","1.1674"
"41.8000","0.6945","1.2419"
"42.9000","0.7122","1.3103"
"44.0000","0.7305","1.3838"
"45.1000","0.7491","1.4598"
"46.2000","0.7676","1.5331"
"47.3000","0.7859","1.6044"
"48.4000","0.8043","1.6763"
"49.5000","0.8228","1.7472"
"50.6000","0.8406","1.8096"
"51.7000","0.8588","1.8727"
"52.8000","0.8773","1.9362"
"53.9000","0.8961","1.9979"
"55.0000","0.9142","2.0530"
"56.1000","0.9326","2.1102"
"57.2000","0.9511","2.1659"
"58.3000","0.9690","2.2209"
"59.4000","0.9872","2.2762"
"60.5000","1.0056","2.3328"
"61.6000","1.0244","2.3923"
"62.7000","1.0427","2.4476"
"63.8000","1.0608","2.5022"
"64.9000","1.0792","2.5580"
"66.0000","1.0974","2.6083"
"67.1000","1.1155","2.6600"
"68.2000","1.1340","2.7179"
"69.3000","1.1527","2.7746"
"70.4000","1.1712","2.8309"
"71.5000","1.1891","2.8837"
"72.6000","1.2074","2.9396"
"73.7000","1.2259","2.9950"
"74.8000","1.2440","3.0488"
"75.9000","1.2623","3.1055"
"77.0000","1.2809","3.1607"
"78.1000","1.2996","3.2166"
"79.2000","1.3175","3.2689"
"80.3000","1.3357","3.3210"
"81.4000","1.3540","3.3591"
"82.5000","1.3724","3.4149"
"83.6000","1.3907","3.4694"
"84.7000","1.4091","3.5229"
"85.8000","1.4279","3.5817"
"86.9000","1.4460","3.6321"
"88.0000","1.4639","3.6833"
"89.1000","1.4822","3.7361"
"90.2000","1.5008","3.7898"
"91.3000","1.5192","3.8390"
"92.4000","1.5375","3.8903"
"93.5000","1.5563","3.9449"
"94.6000","1.5744","3.9938"
"95.7000","1.5921","4.0394"
"96.8000","1.6105","4.0921"
"97.9000","1.6293","4.1490"
"99.0000","1.6476","4.1998"
"100.1000","1.6658","4.2506"
"101.2000","1.6844","4.3069"
"102.3000","1.7028","4.3598"
"103.4000","1.7205","4.4083"
"104.5000","1.7388","4.4613"
"105.6000","1.7575","4.5176"
"106.7000","1.7761","4.5721"
"107.8000","1.7941","4.6242"
"108.9000","1.8128","4.6787"
"110.0000","1.8311","4.7310"
"111.1000","1.8489","4.7810"
"112.2000","1.8671","4.8332"
"113.3000","1.8857","4.8878"
"114.4000","1.9045","4.9447"
"115.5000","1.9226","4.9954"
"116.6000","1.9409","5.0482"
"117.7000","1.9593","5.1015"
"118.8000","1.9772","5.1523"
"119.9000","1.9955","5.2063"
"121.0000","2.0140","5.2608"
"122.1000","2.0328","5.3185"
"123.2000","2.0512","5.3718"
"124.3000","2.0692","5.4240"
"125.4000","2.0875","5.4765"
"126.5000","2.1057","5.5291"
"127.6000","2.1240","5.5824"
"128.7000","2.1423","5.6357"
"129.8000","2.1612","5.6916"
"130.9000","2.1795","5.7440"
"132.0000","2.1975","5.7957"
"133.1000","2.2156","5.8459"
"134.2000","2.2341","5.8996"
"135.3000","2.2524","5.9522"
"136.4000","2.2707","6.0032"
"137.5000","2.2893","6.0558"
"138.6000","2.3080","6.1100"
"139.7000","2.3258","6.1571"
"140.8000","2.3440","6.2066"
"141.9000","2.3623","6.2560"
"143.0000","2.3808","6.3083"
"144.1000","2.3991","6.3565"
"145.2000","2.4175","6.4065"
"146.3000","2.4364","6.4602"
"147.4000","2.4542","6.5071"
"148.5000","2.4722","6.5555"
"149.6000","2.4906","6.6054"
"150.7000","2.5093","6.6561"
"151.8000","2.5275","6.7056"
"152.9000","2.5458","6.7572"
"154.0000","2.5647","6.8099"
"155.1000","2.5826","6.8586"
"156.2000","2.6004","6.9061"
"157.3000","2.6188","6.9577"
"158.4000","2.6377","7.0118"
"159.5000","2.6559","7.0605"
"160.6000","2.6742","7.1115"
"161.7000","2.6928","7.1625"
"162.8000","2.7109","7.2110"
"163.9000","2.7288","7.2581"
"165.0000","2.7472","7.3090"
"166.1000","2.7658","7.3595"
"167.2000","2.7845","7.4127"
"168.3000","2.8025","7.4603"
"169.4000","2.8211","7.5132"
"170.5000","2.8392","7.5608"
"171.6000","2.8572","7.6095"
"172.7000","2.8756","7.6607"
"173.8000","2.8941","7.7128"
"174.9000","2.9129","7.7654"
"176.0000","2.9310","7.8150"
"177.1000","2.9492","7.8636"
"178.2000","2.9675","7.9143"
"179.3000","2.9856","7.9624"
"180.4000","3.0039","8.0129"
"181.5000","3.0224","8.0646"
"182.6000","3.0412","8.1190"
"183.7000","3.0594","8.1678"
"184.8000","3.0775","8.2175"
"185.9000","3.0957","8.2671"
"187.0000","3.1141","8.3184"
"188.1000","3.1323","8.3689"
"189.2000","3.1507","8.4193"
"190.3000","3.1695","8.4742"
"191.4000","3.1878","8.5243"
"192.5000","3.2058","8.5727"
"193.6000","3.2238","8.6224"
"194.7000","3.2424","8.6756"
"195.8000","3.2609","8.7263"
"196.9000","3.2791","8.7767"
"198.0000","3.2977","8.8273"
"199.1000","3.3163","8.8769"
"200.2000","3.3339","8.9183"
"201.3000","3.3522","8.9478"
"202.3530","3.3698","8.4076"
"203.4530","3.3883","8.4543"
"204.5530","3.4067","8.5181"
"205.6530","3.4250","8.5853"
"206.7530","3.4438","8.6565"
"207.8530","3.4620","8.7214"
"208.9530","3.4798","8.7802"
"210.0530","3.4980","8.8386"
"211.1530","3.5168","8.8987"
"212.2530","3.5352","8.9568"
"213.3530","3.5534","9.0096"
"214.4530","3.5719","9.0630"
"215.5530","3.5904","9.1176"
"216.6530","3.6081","9.1655"
"217.7530","3.6263","9.2181"
"218.8530","3.6451","9.2721"
"219.9530","3.6635","9.3248"
"221.0530","3.6817","9.3752"
"222.1530","3.7002","9.4265"
"223.2530","3.7187","9.4786"
"224.3530","3.7365","9.5265"
"225.4530","3.7547","9.5757"
"226.5530","3.7733","9.6264"
"227.6530","3.7921","9.6797"
"228.7530","3.8101","9.7264"
"229.8530","3.8285","9.7774"
"230.9530","3.8469","9.8268"
"232.0530","3.8648","9.8746"
"233.1530","3.8831","9.9233"
"234.2530","3.9017","9.9753"
"235.3530","3.9203","10.0246"
"236.4530","3.9386","10.0738"
"237.5530","3.9568","10.1218"
"238.6530","3.9749","10.1695"
"239.7530","3.9932","10.2178"
"240.8530","4.0115","10.2661"
"241.9530","4.0299","10.3160"
"243.0530","4.0487","10.3660"
"244.1530","4.0671","10.4154"
"245.2530","4.0851","10.4625"
"246.3530","4.1033","10.5095"
"247.4530","4.1216","10.5592"
"248.5530","4.1399","10.6070"
"249.6530","4.1582","10.6548"
"250.7530","4.1768","10.7047"
"251.8530","4.1955","10.7556"
"252.9530","4.2134","10.8020"
"254.0530","4.2315","10.8483"
"255.1530","4.2499","10.8970"
"256.2530","4.2684","10.9465"
"257.3530","4.2866","10.9939"
"258.4530","4.3051","11.0428"
"259.5530","4.3240","11.0955"
"260.6530","4.3417","11.1398"
"261.7530","4.3597","11.1861"
"262.8530","4.3782","11.2363"
"263.9530","4.3969","11.2874"
"265.0530","4.4150","11.3324"
"266.1530","4.4334","11.3822"
"267.2530","4.4522","11.4329"
"268.3530","4.4701","11.4796"
"269.4530","4.4880","11.5255"
"270.5530","4.5064","11.5734"
"271.6530","4.5253","11.6247"
"272.7530","4.5435","11.6723"
"273.8530","4.5618","11.7209"
"274.9530","4.5803","11.7702"
"276.0530","4.5985","11.8170"
"277.1530","4.6163","11.8624"
"278.2530","4.6347","11.9102"
"279.3530","4.6534","11.9610"
"280.4530","4.6720","12.0097"
"281.5530","4.6901","12.0559"
"282.6530","4.7086","12.1047"
"283.7530","4.7268","12.1522"
"284.8530","4.7448","12.1982"
"285.9530","4.7631","12.2466"
"287.0530","4.7817","12.2940"
"288.1530","4.8004","12.3444"
"289.2530","4.8185","12.3904"
"290.3530","4.8367","12.4369"
"291.4530","4.8552","12.4854"
"292.5530","4.8733","12.5311"
"293.6530","4.8914","12.5774"
"294.7530","4.9100","12.6260"
"295.8530","4.9287","12.6706"
"296.9530","4.9470","12.7175"
"298.0530","4.9650","12.7633"
"299.1530","4.9832","12.8099"
"300.2530","5.0016","12.8572"
"301.3530","5.0199","12.9028"
"302.4530","5.0382","12.9497"
"303.5530","5.0569","12.9987"
"304.6530","5.0755","13.0467"
"305.7530","5.0932","13.0858"
"306.8530","5.1114","13.1316"
"307.9530","5.1300","13.1778"
"308.1690","5.1337","9.9411"
"308.1750","5.1340","7.6863"

File: FIBERGLASS TENSILE_2.csv
Time,Displacement,Force
(s),(mm),(kN)
"0.0000","0.0000","0.0119"
"1.0000","0.0133","0.0150"
"2.0000","0.0299","0.0157"
"3.0000","0.0465","0.0157"
"4.0000","0.0631","0.0149"
"5.0000","0.0796","0.0156"
"6.0000","0.0963","0.0159"
"7.0000","0.1130","0.0156"
"8.0000","0.1295","0.0156"
"9.0000","0.1462","0.0156"
"10.0000","0.1629","0.0162"
"11.0000","0.1795","0.0165"
"12.0000","0.1961","0.0203"
"13.0000","0.2128","0.0427"
"14.0000","0.2295","0.0653"
"15.0000","0.2462","0.1027"
"16.0000","0.2629","0.1768"
"17.0000","0.2795","0.2676"
"18.0000","0.2962","0.3573"
"19.0000","0.3127","0.4457"
"20.0000","0.3294","0.5347"
"21.0000","0.3461","0.6244"
"22.0000","0.3628","0.7146"
"23.0000","0.3796","0.8063"
"24.0000","0.3962","0.8966"
"25.0000","0.4130","0.9900"
"26.0000","0.4297","1.0809"
"27.0000","0.4464","1.1718"
"28.0000","0.4631","1.2626"
"29.0000","0.4799","1.3527"
"30.0000","0.4966","1.4429"
"31.0000","0.5132","1.5326"
"32.0000","0.5300","1.6227"
"33.0000","0.5466","1.7102"
"34.0000","0.5630","1.7969"
"35.0000","0.5797","1.8837"
"36.0000","0.5961","1.9693"
"37.0000","0.6126","2.0542"
"38.0000","0.6293","2.1401"
"39.0000","0.6459","2.2243"
"40.0000","0.6626","2.3095"
"41.0000","0.6794","2.3931"
"42.0000","0.6961","2.4758"
"43.0000","0.7129","2.5579"
"44.0000","0.7298","2.6412"
"45.0000","0.7466","2.7220"
"46.0000","0.7634","2.8018"
"47.0000","0.7801","2.8806"
"48.0000","0.7967","2.9570"
"49.0000","0.8133","3.0315"
"50.0000","0.8299","3.0913"
"51.0000","0.8463","3.1571"
"52.0000","0.8628","3.2278"
"53.0000","0.8796","3.3007"
"54.0000","0.8961","3.3722"
"55.0000","0.9126","3.4432"
"56.0000","0.9293","3.5135"
"57.0000","0.9459","3.5846"
"58.0000","0.9627","3.6526"
"59.0000","0.9794","3.7206"
"60.0000","0.9961","3.7889"
"61.0000","1.0129","3.8543"
"62.0000","1.0296","3.9202"
"63.0000","1.0464","3.9859"
"64.0000","1.0631","4.0498"
"65.0000","1.0798","4.1123"
"66.0000","1.0965","4.1750"
"67.0000","1.1130","4.2366"
"68.0000","1.1298","4.2974"
"69.0000","1.1463","4.3575"
"70.0000","1.1629","4.4163"
"71.0000","1.1795","4.4774"
"72.0000","1.1962","4.5370"
"73.0000","1.2129","4.5972"
"74.0000","1.2295","4.6568"
"75.0000","1.2461","4.7169"
"76.0000","1.2630","4.7762"
"77.0000","1.2796","4.8353"
"78.0000","1.2962","4.8915"
"79.0000","1.3129","4.9486"
"80.0000","1.3294","5.0012"
"81.0000","1.3460","5.0520"
"82.0000","1.3627","5.1081"
"83.0000","1.3794","5.1627"
"84.0000","1.3962","5.2208"
"85.0000","1.4129","5.2801"
"86.0000","1.4296","5.3378"
"87.0000","1.4463","5.3962"
"88.0000","1.4631","5.4541"
"89.0000","1.4798","5.5132"
"90.0000","1.4966","5.5693"
"91.0000","1.5133","5.6273"
"92.0000","1.5299","5.6825"
"93.0000","1.5466","5.7382"
"94.0000","1.5631","5.7930"
"95.0000","1.5797","5.8464"
"96.0000","1.5963","5.9018"
"97.0000","1.6128","5.9548"
"98.0000","1.6293","6.0080"
"99.0000","1.6460","6.0612"
"100.0000","1.6625","6.1140"
"101.0000","1.6792","6.1674"
"102.0000","1.6960","6.2222"
"103.0000","1.7127","6.2758"
"104.0000","1.7295","6.3296"
"105.0000","1.7465","6.3845"
"106.0000","1.7634","6.4389"
"107.0000","1.7801","6.4920"
"108.0000","1.7969","6.5448"
"109.0000","1.8134","6.5968"
"110.0000","1.8300","6.6485"
"111.0000","1.8465","6.6993"
"112.0000","1.8630","6.7514"
"113.0000","1.8796","6.8014"
"114.0000","1.8962","6.8534"
"115.0000","1.9128","6.9035"
"116.0000","1.9294","6.9551"
"117.0000","1.9460","7.0046"
"118.0000","1.9626","7.0552"
"119.0000","1.9793","7.1068"
"120.0000","1.9960","7.1575"
"121.0000","2.0128","7.2085"
"122.0000","2.0296","7.2596"
"123.0000","2.0463","7.3102"
"124.0000","2.0630","7.3588"
"125.0000","2.0797","7.4082"
"126.0000","2.0963","7.4564"
"127.0000","2.1130","7.5048"
"128.0000","2.1297","7.5513"
"129.0000","2.1463","7.5969"
"130.0000","2.1629","7.6427"
"131.0000","2.1797","7.6904"
"132.0000","2.1962","7.7358"
"133.0000","2.2128","7.7812"
"134.0000","2.2296","7.8291"
"135.0000","2.2463","7.8770"
"136.0000","2.2629","7.9250"
"137.0000","2.2798","7.9742"
"138.0000","2.2963","8.0214"
"139.0000","2.3130","8.0706"
"140.0000","2.3295","8.1179"
"141.0000","2.3460","8.1648"
"142.0000","2.3626","8.2127"
"143.0000","2.3792","8.2586"
"144.0000","2.3959","8.3073"
"145.0000","2.4128","8.3571"
"146.0000","2.4295","8.4044"
"147.0000","2.4463","8.4504"
"148.0000","2.4631","8.4968"
"149.0000","2.4798","8.5407"
"150.0000","2.4966","8.5830"
"151.0000","2.5132","8.6284"
"152.0000","2.5301","8.6742"
"153.0000","2.5467","8.7187"
"154.0000","2.5632","8.7628"
"155.0000","2.5799","8.8094"
"156.0000","2.5964","8.8555"
"157.0000","2.6129","8.9009"
"158.0000","2.6294","8.9480"
"159.0000","2.6460","8.9947"
"160.0000","2.6626","9.0432"
"161.0000","2.6792","9.0913"
"162.0000","2.6959","9.1387"
"163.0000","2.7126","9.1882"
"164.0000","2.7294","9.2376"
"165.0000","2.7463","9.2879"
"166.0000","2.7630","9.3379"
"167.0000","2.7800","9.3878"
"168.0000","2.7967","9.4384"
"169.0000","2.8134","9.4870"
"170.0000","2.8301","9.5364"
"171.0000","2.8466","9.5840"
"172.0000","2.8632","9.6331"
"173.0000","2.8797","9.6818"
"174.0000","2.8963","9.7297"
"175.0000","2.9129","9.7791"
"176.0000","2.9294","9.8266"
"177.0000","2.9461","9.8763"
"178.0000","2.9628","9.9243"
"179.0000","2.9793","9.9729"
"180.0000","2.9961","10.0212"
"181.0000","3.0128","10.0705"
"182.0000","3.0294","10.1188"
"183.0000","3.0461","10.1673"
"184.0000","3.0628","10.2163"
"185.0000","3.0795","10.2639"
"186.0000","3.0963","10.3131"
"187.0000","3.1130","10.3613"
"188.0000","3.1296","10.4093"
"189.0000","3.1462","10.4570"
"190.0000","3.1630","10.5054"
"191.0000","3.1796","10.5537"
"192.0000","3.1963","10.6020"
"193.0000","3.2129","10.6490"
"194.0000","3.2296","10.6973"
"195.0000","3.2464","10.7452"
"196.0000","3.2630","10.7921"
"197.0000","3.2798","10.8406"
"198.0000","3.2965","10.8881"
"199.0000","3.3130","10.9343"
"200.0000","3.3296","10.9798"
"201.0000","3.3461","11.0263"
"202.0000","3.3627","11.0729"
"203.0000","3.3793","11.1169"
"204.0000","3.3959","11.1605"
"205.0000","3.4126","11.2056"
"206.0000","3.4293","11.2509"
"207.0000","3.4461","11.2975"
"208.0000","3.4629","11.3439"
"209.0000","3.4796","11.3884"
"210.0000","3.4965","11.4340"
"211.0000","3.5132","11.4787"
"212.0000","3.5299","11.5231"
"213.0000","3.5468","11.5680"
"214.0000","3.5633","11.6114"
"215.0000","3.5800","11.6554"
"216.0000","3.5964","11.6992"
"217.0000","3.6130","11.7439"
"218.0000","3.6296","11.7883"
"219.0000","3.6462","11.8346"
"220.0000","3.6627","11.8796"
"221.0000","3.6794","11.9252"
"222.0000","3.6960","11.9695"
"223.0000","3.7125","12.0143"
"224.0000","3.7293","12.0595"
"225.0000","3.7460","12.1037"
"226.0000","3.7629","12.1491"
"227.0000","3.7797","12.1950"
"228.0000","3.7966","12.2424"
"229.0000","3.8133","12.2851"
"230.0000","3.8300","12.3301"
"231.0000","3.8466","12.3747"
"232.0000","3.8632","12.4188"
"233.0000","3.8797","12.4640"
"234.0000","3.8964","12.5078"
"235.0000","3.9129","12.5510"
"236.0000","3.9295","12.5954"
"237.0000","3.9462","12.6406"
"238.0000","3.9628","12.6848"
"239.0000","3.9794","12.7291"
"240.0000","3.9961","12.7737"
"241.0000","4.0128","12.8190"
"242.0000","4.0294","12.8636"
"243.0000","4.0462","12.9083"
"244.0000","4.0629","12.9535"
"245.0000","4.0794","12.9976"
"246.0000","4.0961","13.0435"
"247.0000","4.1128","13.0880"
"248.0000","4.1295","13.1334"
"249.0000","4.1462","13.1780"
"250.0000","4.1631","13.2239"
"251.0000","4.1797","13.2687"
"252.0000","4.1963","13.3130"
"253.0000","4.2131","13.3585"
"254.0000","4.2297","13.4025"
"255.0000","4.2464","13.4467"
"256.0000","4.2631","13.4899"
"257.0000","4.2798","13.5344"
"258.0000","4.2964","13.5774"
"259.0000","4.3132","13.6228"
"260.0000","4.3298","13.6656"
"261.0000","4.3463","13.7076"
"262.0000","4.3628","13.7512"
"263.0000","4.3793","13.7935"
"264.0000","4.3959","13.8381"
"265.0000","4.4126","13.8827"
"266.0000","4.4292","13.9271"
"267.0000","4.4460","13.9708"
"268.0000","4.4628","14.0162"
"269.0000","4.4796","14.0615"
"270.0000","4.4964","14.1056"
"271.0000","4.5132","14.1508"
"272.0000","4.5301","14.1948"
"273.0000","4.5467","14.2392"
"273.7790","4.5589","13.2295"
"273.7890","4.5593","9.5781"
"273.7920","4.5595","8.3506"

File: FIBERGLASS TENSILE_3.csv
Time,Displacement,Force
(s),(mm),(kN)
"0.0000","0.1875","1.9305"
"0.9000","0.1998","2.0117"
"1.8000","0.2146","2.0889"
"2.7000","0.2296","2.1608"
"3.6000","0.2446","2.2309"
"4.5000","0.2596","2.2983"
"5.4000","0.2744","2.3631"
"6.3000","0.2895","2.4287"
"7.2000","0.3048","2.4933"
"8.1000","0.3198","2.5557"
"9.0000","0.3348","2.6161"
"9.9000","0.3494","2.6388"
"10.8000","0.3643","2.6973"
"11.7000","0.3795","2.7584"
"12.6000","0.3947","2.8193"
"13.5000","0.4097","2.8788"
"14.4000","0.4246","2.9365"
"15.3000","0.4398","2.9972"
"16.2000","0.4547","3.0562"
"17.1000","0.4694","3.1139"
"18.0000","0.4843","3.1716"
"18.9000","0.4994","3.2298"
"19.8000","0.5150","3.2924"
"20.7000","0.5301","3.3528"
"21.6000","0.5445","3.4075"
"22.5000","0.5596","3.4659"
"23.4000","0.5747","3.5235"
"24.3000","0.5896","3.5818"
"25.2000","0.6044","3.6368"
"26.1000","0.6195","3.6948"
"27.0000","0.6350","3.7569"
"27.9000","0.6498","3.8113"
"28.8000","0.6644","3.8651"
"29.7000","0.6794","3.9211"
"30.6000","0.6946","3.9778"
"31.5000","0.7097","4.0333"
"32.4000","0.7246","4.0877"
"33.3000","0.7396","4.1446"
"34.2000","0.7550","4.2009"
"35.1000","0.7696","4.2527"
"36.0000","0.7844","4.3068"
"36.9000","0.7993","4.3605"
"37.8000","0.8147","4.4164"
"38.7000","0.8299","4.4735"
"39.6000","0.8447","4.5275"
"40.5000","0.8595","4.5788"
"41.4000","0.8749","4.6352"
"42.3000","0.8896","4.6872"
"43.2000","0.9044","4.7381"
"44.1000","0.9193","4.7901"
"45.0000","0.9347","4.8458"
"45.9000","0.9501","4.8984"
"46.8000","0.9648","4.9493"
"47.7000","0.9794","4.9973"
"48.6000","0.9946","5.0509"
"49.5000","1.0097","5.1038"
"50.4000","1.0246","5.1543"
"51.3000","1.0394","5.2049"
"52.2000","1.0547","5.2585"
"53.1000","1.0703","5.3148"
"54.0000","1.0846","5.3612"
"54.9000","1.0993","5.4093"
"55.8000","1.1144","5.4596"
"56.7000","1.1298","5.5122"
"57.6000","1.1447","5.5498"
"58.5000","1.1596","5.5991"
"59.4000","1.1747","5.6504"
"60.3000","1.1900","5.7004"
"61.2000","1.2046","5.7484"
"62.1000","1.2193","5.7967"
"63.0000","1.2343","5.8469"
"63.9000","1.2498","5.9026"
"64.8000","1.2649","5.9544"
"65.7000","1.2797","6.0042"
"66.6000","1.2945","6.0537"
"67.5000","1.3098","6.1065"
"68.4000","1.3245","6.1555"
"69.3000","1.3393","6.2049"
"70.2000","1.3544","6.2537"
"71.1000","1.3699","6.3099"
"72.0000","1.3850","6.3608"
"72.9000","1.3996","6.4078"
"73.8000","1.4143","6.4561"
"74.7000","1.4297","6.5077"
"75.6000","1.4446","6.5585"
"76.5000","1.4595","6.6071"
"77.4000","1.4744","6.6552"
"78.3000","1.4900","6.7102"
"79.2000","1.5050","6.7589"
"80.1000","1.5194","6.8040"
"81.0000","1.5342","6.8519"
"81.9000","1.5495","6.9010"
"82.8000","1.5648","6.9518"
"83.7000","1.5797","6.9986"
"84.6000","1.5946","7.0449"
"85.5000","1.6098","7.0938"
"86.4000","1.6248","7.1410"
"87.3000","1.6394","7.1867"
"88.2000","1.6542","7.2340"
"89.1000","1.6694","7.2815"
"90.0000","1.6848","7.3319"
"90.9000","1.6999","7.3789"
"91.8000","1.7146","7.4248"
"92.7000","1.7296","7.4729"
"93.6000","1.7447","7.5210"
"94.5000","1.7595","7.5669"
"95.4000","1.7743","7.6124"
"96.3000","1.7895","7.6607"
"97.2000","1.8052","7.7131"
"98.1000","1.8199","7.7590"
"99.0000","1.8344","7.8017"
"99.9000","1.8493","7.8486"
"100.8000","1.8646","7.8966"
"101.7000","1.8796","7.9429"
"102.6000","1.8945","7.9912"
"103.5000","1.9096","8.0384"
"104.4000","1.9252","8.0896"
"105.3000","1.9398","8.1347"
"106.2000","1.9544","8.1776"
"107.1000","1.9693","8.2246"
"108.0000","1.9846","8.2741"
"108.9000","1.9998","8.3221"
"109.8000","2.0147","8.3692"
"110.7000","2.0296","8.4150"
"111.6000","2.0449","8.4640"
"112.5000","2.0595","8.5089"
"113.4000","2.0744","8.5553"
"114.3000","2.0893","8.6003"
"115.2000","2.1047","8.6497"
"116.1000","2.1200","8.6983"
"117.0000","2.1348","8.7409"
"117.9000","2.1494","8.7844"
"118.8000","2.1646","8.8320"
"119.7000","2.1797","8.8797"
"120.6000","2.1945","8.9233"
"121.5000","2.2093","8.9683"
"122.4000","2.2248","9.0156"
"123.3000","2.2402","9.0604"
"124.2000","2.2547","9.1019"
"125.1000","2.2693","9.1434"
"126.0000","2.2844","9.1892"
"126.9000","2.2996","9.2349"
"127.8000","2.3146","9.2797"
"128.7000","2.3296","9.3242"
"129.6000","2.3447","9.3712"
"130.5000","2.3600","9.4187"
"131.4000","2.3746","9.4613"
"132.3000","2.3894","9.5051"
"133.2000","2.4043","9.5500"
"134.1000","2.4198","9.5995"
"135.0000","2.4349","9.6452"
"135.9000","2.4497","9.6890"
"136.8000","2.4646","9.7337"
"137.7000","2.4798","9.7808"
"138.6000","2.4944","9.8229"
"139.5000","2.5094","9.8676"
"140.4000","2.5243","9.9125"
"141.3000","2.5399","9.9611"
"142.2000","2.5549","10.0062"
"143.1000","2.5696","10.0415"
"144.0000","2.5844","10.0772"
"144.9000","2.5996","10.1193"
"145.8000","2.6146","10.1608"
"146.7000","2.6295","10.2006"
"147.6000","2.6444","10.2408"
"148.5000","2.6601","10.2835"
"149.4000","2.6750","10.3241"
"150.3000","2.6895","10.3626"
"151.2000","2.7043","10.4057"
"152.1000","2.7196","10.4510"
"153.0000","2.7346","10.4951"
"153.9000","2.7496","10.5398"
"154.8000","2.7644","10.5821"
"155.7000","2.7800","10.6308"
"156.6000","2.7948","10.6749"
"157.5000","2.8095","10.7175"
"158.4000","2.8242","10.7607"
"159.3000","2.8396","10.8072"
"160.2000","2.8549","10.8538"
"161.1000","2.8699","10.8973"
"162.0000","2.8844","10.9382"
"162.9000","2.8997","10.9810"
"163.8000","2.9148","11.0236"
"164.7000","2.9294","11.0635"
"165.6000","2.9444","11.1057"
"166.5000","2.9595","11.1477"
"167.4000","2.9751","11.1931"
"168.3000","2.9899","11.2333"
"169.2000","3.0044","11.2687"
"170.1000","3.0194","11.3061"
"171.0000","3.0346","11.3388"
"171.9000","3.0495","11.3694"
"172.8000","3.0644","11.4040"
"173.7000","3.0796","11.4397"
"174.6000","3.0952","11.4777"
"175.5000","3.1098","11.5116"
"176.4000","3.1243","11.5467"
"177.3000","3.1393","11.5852"
"178.2000","3.1547","11.6244"
"179.1000","3.1697","11.6653"
"180.0000","3.1846","11.7048"
"180.9000","3.1996","11.7453"
"181.8000","3.2150","11.7886"
"182.7000","3.2296","11.8264"
"183.6000","3.2444","11.8651"
"184.5000","3.2593","11.9055"
"185.4000","3.2747","11.9470"
"186.3000","3.2899","11.9887"
"187.2000","3.3048","12.0277"
"188.1000","3.3195","12.0652"
"189.0000","3.3348","12.1057"
"189.9000","3.3496","12.1438"
"190.8000","3.3644","12.1833"
"191.7000","3.3792","12.2247"
"192.6000","3.3947","12.2697"
"193.5000","3.4101","12.3136"
"194.4000","3.4247","12.3529"
"195.3000","3.4394","12.3934"
"196.2000","3.4545","12.4356"
"197.1000","3.4696","12.4788"
"198.0000","3.4846","12.5222"
"198.9000","3.4995","12.5649"
"199.8000","3.5148","12.6101"
"200.7000","3.5299","12.6552"
"201.6000","3.5447","12.6950"
"202.5000","3.5593","12.7361"
"203.4000","3.5744","12.7794"
"204.3000","3.5897","12.8242"
"205.2000","3.6047","12.8668"
"206.1000","3.6196","12.9080"
"207.0000","3.6347","12.9522"
"207.9000","3.6498","12.9962"
"208.8000","3.6646","13.0374"
"209.7000","3.6794","13.0789"
"210.6000","3.6943","13.1201"
"211.5000","3.7099","13.1669"
"212.4000","3.7250","13.2108"
"213.3000","3.7396","13.2493"
"214.2000","3.7545","13.2920"
"215.1000","3.7697","13.3360"
"216.0000","3.7846","13.3782"
"216.9000","3.7994","13.4191"
"217.8000","3.8144","13.4620"
"218.7000","3.8300","13.5093"
"219.6000","3.8449","13.5513"
"220.5000","3.8595","13.5917"
"221.4000","3.8743","13.6335"
"222.3000","3.8896","13.6785"
"223.2000","3.9047","13.7222"
"224.1000","3.9196","13.7644"
"225.0000","3.9344","13.8052"
"225.9000","3.9500","13.8517"
"226.8000","3.9650","13.8937"
"227.7000","3.9795","13.9319"
"228.6000","3.9942","13.9713"
"229.5000","4.0095","14.0153"
"230.4000","4.0248","14.0583"
"231.3000","4.0398","14.0999"
"232.2000","4.0544","14.1387"
"233.1000","4.0698","14.1835"
"234.0000","4.0848","14.2257"
"234.9000","4.0995","14.2642"
"235.8000","4.1143","14.3054"
"236.7000","4.1295","14.3480"
"237.6000","4.1450","14.3930"
"238.5000","4.1599","14.4338"
"239.4000","4.1744","14.4723"
"240.3000","4.1895","14.5133"
"241.2000","4.2048","14.5564"
"242.1000","4.2196","14.5956"
"243.0000","4.2343","14.6350"
"243.9000","4.2495","14.6753"
"244.8000","4.2652","14.7193"
"245.7000","4.2799","14.7530"
"245.8750","4.2826","12.0793"
"245.8830","4.2830","8.7779"