Folder: CompositeTensileTests/DestructiveTests/Tensile/FLAX TENSILE.is_qtest_Exports

File: FLAX TENSILE_1.csv
Time,Displacement,Force
(s),(mm),(kN)
"0.0000","0.0000","0.0168"
"0.9000","0.0126","0.0543"
"1.8000","0.0274","0.0883"
"2.7000","0.0422","0.1171"
"3.6000","0.0571","0.1420"
"4.5000","0.0723","0.1632"
"5.4000","0.0876","0.1827"
"6.3000","0.1026","0.2010"
"7.2000","0.1172","0.2150"
"8.1000","0.1325","0.2291"
"9.0000","0.1474","0.2384"
"9.9000","0.1623","0.2478"
"10.8000","0.1771","0.2564"
"11.7000","0.1924","0.2654"
"12.6000","0.2078","0.2759"
"13.5000","0.2225","0.2841"
"14.4000","0.2372","0.2911"
"15.3000","0.2522","0.2990"
"16.2000","0.2674","0.3069"
"17.1000","0.2824","0.3151"
"18.0000","0.2973","0.3237"
"18.9000","0.3124","0.3311"
"19.8000","0.3280","0.3406"
"20.7000","0.3423","0.3462"
"21.6000","0.3571","0.3525"
"22.5000","0.3720","0.3590"
"23.4000","0.3874","0.3681"
"24.3000","0.4025","0.3759"
"25.2000","0.4175","0.3838"
"26.1000","0.4323","0.3900"
"27.0000","0.4477","0.3996"
"27.9000","0.4623","0.4062"
"28.8000","0.4772","0.4124"
"29.7000","0.4920","0.4189"
"30.6000","0.5076","0.4275"
"31.5000","0.5227","0.4347"
"32.4000","0.5375","0.4422"
"33.3000","0.5522","0.4476"
"34.2000","0.5674","0.4546"
"35.1000","0.5823","0.4615"
"36.0000","0.5972","0.4688"
"36.9000","0.6121","0.4748"
"37.8000","0.6276","0.4832"
"38.7000","0.6428","0.4911"
"39.6000","0.6573","0.4963"
"40.5000","0.6721","0.5012"
"41.4000","0.6873","0.5072"
"42.3000","0.7024","0.5146"
"43.2000","0.7173","0.5211"
"44.1000","0.7322","0.5271"
"45.0000","0.7476","0.5340"
"45.9000","0.7628","0.5409"
"46.8000","0.7773","0.5453"
"47.7000","0.7919","0.5494"
"48.6000","0.8072","0.5564"
"49.5000","0.8226","0.5637"
"50.4000","0.8378","0.5698"
"51.3000","0.8523","0.5728"
"52.2000","0.8675","0.5781"
"53.1000","0.8826","0.5842"
"54.0000","0.8973","0.5890"
"54.9000","0.9121","0.5945"
"55.8000","0.9272","0.6008"
"56.7000","0.9428","0.6087"
"57.6000","0.9578","0.6163"
"58.5000","0.9724","0.6211"
"59.4000","0.9872","0.6263"
"60.3000","1.0025","0.6336"
"61.2000","1.0172","0.6391"
"62.1000","1.0322","0.6454"
"63.0000","1.0472","0.6511"
"63.9000","1.0629","0.6600"
"64.8000","1.0776","0.6658"
"65.7000","1.0923","0.6709"
"66.6000","1.1071","0.6758"
"67.5000","1.1224","0.6842"
"68.4000","1.1374","0.6908"
"69.3000","1.1524","0.6967"
"70.2000","1.1673","0.7021"
"71.1000","1.1828","0.7106"
"72.0000","1.1975","0.7159"
"72.9000","1.2121","0.7215"
"73.8000","1.2270","0.7270"
"74.7000","1.2424","0.7341"
"75.6000","1.2576","0.7409"
"76.5000","1.2725","0.7466"
"77.4000","1.2873","0.7522"
"78.3000","1.3026","0.7597"
"79.2000","1.3173","0.7656"
"80.1000","1.3321","0.7711"
"81.0000","1.3471","0.7772"
"81.9000","1.3624","0.7851"
"82.8000","1.3779","0.7926"
"83.7000","1.3927","0.7990"
"84.6000","1.4071","0.8045"
"85.5000","1.4224","0.8120"
"86.4000","1.4374","0.8187"
"87.3000","1.4523","0.8244"
"88.2000","1.4671","0.8298"
"89.1000","1.4824","0.8374"
"90.0000","1.4979","0.8459"
"90.9000","1.5124","0.8515"
"91.8000","1.5271","0.8571"
"92.7000","1.5422","0.8634"
"93.6000","1.5574","0.8706"
"94.5000","1.5724","0.8776"
"95.4000","1.5874","0.8853"
"96.3000","1.6023","0.8906"
"97.2000","1.6178","0.8988"
"98.1000","1.6324","0.9041"
"99.0000","1.6471","0.9095"
"99.9000","1.6620","0.9153"
"100.8000","1.6776","0.9245"
"101.7000","1.6926","0.9319"
"102.6000","1.7075","0.9379"
"103.5000","1.7222","0.9444"
"104.4000","1.7376","0.9526"
"105.3000","1.7524","0.9587"
"106.2000","1.7671","0.9649"
"107.1000","1.7821","0.9711"
"108.0000","1.7976","0.9803"
"108.9000","1.8127","0.9876"
"109.8000","1.8274","0.9938"
"110.7000","1.8421","1.0011"
"111.6000","1.8574","1.0092"
"112.5000","1.8723","1.0157"
"113.4000","1.8873","1.0236"
"114.3000","1.9022","1.0292"
"115.2000","1.9178","1.0386"
"116.1000","1.9327","1.0474"
"117.0000","1.9472","1.0522"
"117.9000","1.9620","1.0581"
"118.8000","1.9774","1.0655"
"119.7000","1.9925","1.0738"
"120.6000","2.0075","1.0819"
"121.5000","2.0223","1.0881"
"122.4000","2.0377","1.0971"
"123.3000","2.0525","1.1036"
"124.2000","2.0672","1.1091"
"125.1000","2.0820","1.1151"
"126.0000","2.0972","1.1224"
"126.9000","2.1126","1.1307"
"127.8000","2.1277","1.1384"
"128.7000","2.1423","1.1443"
"129.6000","2.1573","1.1512"
"130.5000","2.1726","1.1595"
"131.4000","2.1872","1.1651"
"132.3000","2.2022","1.1719"
"133.2000","2.2172","1.1785"
"134.1000","2.2330","1.1884"
"135.0000","2.2478","1.1955"
"135.9000","2.2623","1.2010"
"136.8000","2.2771","1.2071"
"137.7000","2.2926","1.2154"
"138.6000","2.3074","1.2216"
"139.5000","2.3223","1.2278"
"140.4000","2.3373","1.2350"
"141.3000","2.3530","1.2461"
"142.2000","2.3675","1.2510"
"143.1000","2.3822","1.2574"
"144.0000","2.3971","1.2641"
"144.9000","2.4124","1.2722"
"145.8000","2.4275","1.2794"
"146.7000","2.4424","1.2874"
"147.6000","2.4573","1.2944"
"148.5000","2.4727","1.3024"
"149.4000","2.4874","1.3082"
"150.3000","2.5021","1.3144"
"151.2000","2.5171","1.3214"
"152.1000","2.5324","1.3299"
"153.0000","2.5478","1.3391"
"153.9000","2.5626","1.3462"
"154.8000","2.5772","1.3518"
"155.7000","2.5924","1.3619"
"156.6000","2.6074","1.3697"
"157.5000","2.6223","1.3761"
"158.4000","2.6371","1.3827"
"159.3000","2.6525","1.3918"
"160.2000","2.6678","1.4018"
"161.1000","2.6825","1.4083"
"162.0000","2.6971","1.4139"
"162.9000","2.7122","1.4226"
"163.8000","2.7274","1.4321"
"164.7000","2.7424","1.4409"
"165.6000","2.7573","1.4487"
"166.5000","2.7724","1.4575"
"167.4000","2.7879","1.4673"
"168.3000","2.8024","1.4735"
"169.2000","2.8171","1.4826"
"170.1000","2.8321","1.4901"
"171.0000","2.8476","1.5002"
"171.9000","2.8626","1.5085"
"172.8000","2.8774","1.5148"
"173.7000","2.8924","1.5226"
"174.6000","2.9076","1.5324"
"175.5000","2.9222","1.5377"
"176.4000","2.9372","1.5449"
"177.3000","2.9521","1.5518"
"178.2000","2.9677","1.5629"
"179.1000","2.9828","1.5715"
"180.0000","2.9975","1.5784"
"180.9000","3.0122","1.5847"
"181.8000","3.0274","1.5929"
"182.7000","3.0424","1.6010"
"183.6000","3.0572","1.6088"
"184.5000","3.0721","1.6155"
"185.4000","3.0877","1.6266"
"186.3000","3.1028","1.6358"
"187.2000","3.1173","1.6421"
"188.1000","3.1321","1.6495"
"189.0000","3.1473","1.6582"
"189.9000","3.1624","1.6672"
"190.8000","3.1775","1.6755"
"191.7000","3.1923","1.6832"
"192.6000","3.2077","1.6928"
"193.5000","3.2226","1.7000"
"194.4000","3.2373","1.7073"
"195.3000","3.2520","1.7143"
"196.2000","3.2672","1.7239"
"197.1000","3.2825","1.7342"
"198.0000","3.2977","1.7436"
"198.9000","3.3123","1.7519"
"199.8000","3.3274","1.7605"
"200.7000","3.3426","1.7712"
"201.6000","3.3572","1.7787"
"202.5000","3.3721","1.7862"
"203.4000","3.3872","1.7952"
"204.3000","3.4028","1.8085"
"205.2000","3.4177","1.8170"
"206.1000","3.4322","1.8249"
"207.0000","3.4472","1.8324"
"207.9000","3.4624","1.8432"
"208.8000","3.4774","1.8517"
"209.7000","3.4922","1.8581"
"210.6000","3.5072","1.8667"
"211.5000","3.5229","1.8770"
"212.4000","3.5376","1.8842"
"213.3000","3.5522","1.8906"
"214.2000","3.5671","1.8977"
"215.1000","3.5824","1.9075"
"216.0000","3.5974","1.9161"
"216.9000","3.6126","1.9256"
"217.8000","3.6274","1.9332"
"218.7000","3.6427","1.9437"
"219.6000","3.6574","1.9506"
"220.5000","3.6723","1.9595"
"221.4000","3.6871","1.9690"
"222.3000","3.7025","1.9800"
"223.2000","3.7177","1.9900"
"224.1000","3.7327","1.9994"
"225.0000","3.7472","2.0074"
"225.9000","3.7625","2.0174"
"226.8000","3.7774","2.0247"
"227.7000","3.7922","2.0334"
"228.6000","3.8070","2.0426"
"229.5000","3.8224","2.0526"
"230.4000","3.8379","2.0653"
"231.3000","3.8524","2.0724"
"232.2000","3.8672","2.0807"
"233.1000","3.8823","2.0906"
"234.0000","3.8973","2.0998"
"234.9000","3.9125","2.1105"
"235.8000","3.9271","2.1189"
"236.7000","3.9425","2.1295"
"237.6000","3.9580","2.1390"
"238.5000","3.9724","2.1461"
"239.4000","3.9871","2.1538"
"240.3000","4.0021","2.1650"
"241.2000","4.0175","2.1757"
"242.1000","4.0326","2.1839"
"243.0000","4.0474","2.1926"
"243.9000","4.0624","2.2036"
"244.8000","4.0777","2.2155"
"245.7000","4.0923","2.2242"
"246.6000","4.1071","2.2342"
"247.5000","4.1221","2.2445"
"248.4000","4.1376","2.2585"
"249.3000","4.1527","2.2700"
"250.2000","4.1675","2.2803"
"251.1000","4.1822","2.2903"
"252.0000","4.1975","2.3028"
"252.9000","4.2124","2.3138"
"253.8000","4.2272","2.3245"
"254.7000","4.2421","2.3355"
"255.6000","4.2578","2.3489"
"256.5000","4.2728","2.3616"
"257.4000","4.2873","2.3710"
"258.3000","4.3021","2.3807"
"259.2000","4.3174","2.3935"
"260.1000","4.3324","2.4056"
"261.0000","4.3474","2.4160"
"261.9000","4.3622","2.4266"
"262.8000","4.3777","2.4376"
"262.8470","4.3783","1.4030"

File: FLAX TENSILE_2.csv
Time,Displacement,Force
(s),(mm),(kN)
"0.0000","0.0000","-0.0031"
"1.4000","0.0196","0.0722"
"2.8000","0.0430","0.1459"
"4.2000","0.0665","0.2037"
"5.6000","0.0901","0.2507"
"7.0000","0.1132","0.2883"
"8.4000","0.1365","0.3172"
"9.8000","0.1601","0.3412"
"11.2000","0.1831","0.3564"
"12.6000","0.2062","0.3706"
"14.0000","0.2297","0.3837"
"15.4000","0.2532","0.3900"
"16.8000","0.2765","0.4007"
"18.2000","0.2997","0.4112"
"19.6000","0.3233","0.4233"
"21.0000","0.3469","0.4360"
"22.4000","0.3698","0.4455"
"23.8000","0.3928","0.4554"
"25.2000","0.4166","0.4693"
"26.6000","0.4398","0.4801"
"28.0000","0.4630","0.4919"
"29.4000","0.4862","0.5014"
"30.8000","0.5101","0.5149"
"32.2000","0.5335","0.5272"
"33.6000","0.5565","0.5359"
"35.0000","0.5800","0.5468"
"36.4000","0.6034","0.5588"
"37.8000","0.6264","0.5693"
"39.2000","0.6495","0.5773"
"40.6000","0.6732","0.5869"
"42.0000","0.6965","0.5980"
"43.4000","0.7199","0.6107"
"44.8000","0.7431","0.6214"
"46.2000","0.7670","0.6346"
"47.6000","0.7901","0.6459"
"49.0000","0.8131","0.6567"
"50.4000","0.8364","0.6678"
"51.8000","0.8599","0.6803"
"53.2000","0.8831","0.6908"
"54.6000","0.9062","0.7013"
"56.0000","0.9299","0.7144"
"57.4000","0.9536","0.7275"
"58.8000","0.9767","0.7373"
"60.2000","0.9997","0.7470"
"61.6000","1.0235","0.7607"
"63.0000","1.0465","0.7699"
"64.4000","1.0696","0.7802"
"65.8000","1.0928","0.7899"
"67.2000","1.1165","0.8032"
"68.6000","1.1399","0.8154"
"70.0000","1.1631","0.8263"
"71.4000","1.1865","0.8370"
"72.8000","1.2105","0.8531"
"74.2000","1.2332","0.8621"
"75.6000","1.2563","0.8720"
"77.0000","1.2798","0.8858"
"78.4000","1.3032","0.8973"
"79.8000","1.3263","0.9082"
"81.2000","1.3495","0.9195"
"82.6000","1.3733","0.9329"
"84.0000","1.3969","0.9468"
"85.4000","1.4198","0.9586"
"86.8000","1.4432","0.9706"
"88.2000","1.4667","0.9847"
"89.6000","1.4897","0.9968"
"91.0000","1.5129","1.0111"
"92.4000","1.5363","1.0248"
"93.8000","1.5600","1.0398"
"95.2000","1.5832","1.0538"
"96.6000","1.6064","1.0650"
"98.0000","1.6302","1.0815"
"99.4000","1.6537","1.0968"
"100.8000","1.6764","1.1074"
"102.2000","1.6995","1.1184"
"103.6000","1.7233","1.1331"
"105.0000","1.7464","1.1444"
"106.4000","1.7696","1.1556"
"107.8000","1.7929","1.1684"
"109.2000","1.8168","1.1847"
"110.6000","1.8401","1.1975"
"112.0000","1.8630","1.2091"
"113.4000","1.8867","1.2216"
"114.8000","1.9099","1.2314"
"116.2000","1.9330","1.2419"
"117.6000","1.9561","1.2504"
"119.0000","1.9798","1.2622"
"120.4000","2.0032","1.2719"
"121.8000","2.0264","1.2825"
"123.2000","2.0497","1.2929"
"124.6000","2.0738","1.3055"
"126.0000","2.0967","1.3122"
"127.4000","2.1196","1.3186"
"128.8000","2.1431","1.3258"
"130.2000","2.1665","1.3334"
"131.6000","2.1897","1.3394"
"133.0000","2.2127","1.3427"
"134.4000","2.2365","1.3472"
"135.8000","2.2602","1.3506"
"137.2000","2.2834","1.3521"
"138.6000","2.3064","1.3510"
"140.0000","2.3302","1.3518"
"141.4000","2.3531","1.3488"
"142.8000","2.3763","1.3445"
"144.2000","2.3995","1.3364"
"145.6000","2.4232","1.3334"
"147.0000","2.4466","1.3347"
"148.4000","2.4697","1.3374"
"149.8000","2.4934","1.3445"
"151.2000","2.5170","1.3499"
"152.6000","2.5398","1.3513"
"154.0000","2.5629","1.3513"
"155.4000","2.5865","1.3505"
"156.8000","2.6098","1.3463"
"158.2000","2.6329","1.3388"
"159.6000","2.6562","1.3298"
"161.0000","2.6801","1.3259"
"162.4000","2.7036","1.3215"
"163.8000","2.7266","1.3152"
"165.2000","2.7498","1.3109"
"166.6000","2.7735","1.3065"
"168.0000","2.7964","1.2953"
"169.4000","2.8195","1.2797"
"170.8000","2.8430","1.2666"
"172.2000","2.8666","1.2539"
"173.6000","2.8899","1.2439"
"175.0000","2.9130","1.2308"
"176.4000","2.9369","1.2216"
"177.8000","2.9602","1.2122"
"179.2000","2.9831","1.1988"
"180.6000","3.0062","1.1881"
"182.0000","3.0299","1.1814"
"183.4000","3.0531","1.1676"
"184.8000","3.0762","1.1501"
"186.2000","3.0997","1.1396"
"187.6000","3.1235","1.1324"
"189.0000","3.1467","1.1223"
"190.4000","3.1697","1.1122"
"191.8000","3.1933","1.1050"
"193.2000","3.2165","1.0945"
"194.6000","3.2396","1.0832"
"196.0000","3.2628","1.0743"
"197.4000","3.2865","1.0702"
"198.8000","3.3099","1.0657"
"200.2000","3.3332","1.0609"
"201.6000","3.3565","1.0529"
"203.0000","3.3804","1.0486"
"204.4000","3.4033","1.0397"
"205.8000","3.4263","1.0286"
"207.2000","3.4497","1.0207"
"208.6000","3.4732","1.0146"
"210.0000","3.4964","1.0055"
"211.4000","3.5195","0.9988"
"212.8000","3.5433","0.9931"
"214.2000","3.5668","0.9898"
"215.6000","3.5900","0.9832"
"217.0000","3.6130","0.9767"
"218.4000","3.6368","0.9716"
"219.8000","3.6598","0.9677"
"221.2000","3.6830","0.9643"
"222.6000","3.7063","0.9607"
"224.0000","3.7300","0.9581"
"225.4000","3.7532","0.9517"
"226.8000","3.7765","0.9442"
"228.2000","3.8001","0.9394"
"229.6000","3.8236","0.9346"
"231.0000","3.8464","0.9261"
"232.4000","3.8696","0.9197"
"233.8000","3.8932","0.9157"
"235.2000","3.9165","0.9105"
"236.6000","3.9397","0.9054"
"238.0000","3.9629","0.9000"
"239.4000","3.9868","0.8973"
"240.8000","4.0102","0.8928"
"242.2000","4.0332","0.8861"
"243.6000","4.0565","0.8816"
"245.0000","4.0801","0.8809"
"246.4000","4.1029","0.8744"
"247.8000","4.1261","0.8698"
"249.2000","4.1498","0.8681"
"250.6000","4.1733","0.8643"
"252.0000","4.1966","0.8582"
"253.4000","4.2197","0.8516"
"254.8000","4.2436","0.8491"
"256.2000","4.2668","0.8455"
"257.6000","4.2896","0.8415"
"259.0000","4.3129","0.8403"
"260.4000","4.3365","0.8393"
"261.8000","4.3598","0.8378"
"263.2000","4.3829","0.8370"
"264.6000","4.4064","0.8342"
"266.0000","4.4303","0.8322"
"267.4000","4.4535","0.8286"
"268.8000","4.4764","0.8249"
"270.2000","4.5001","0.8229"
"271.6000","4.5232","0.8189"
"273.0000","4.5463","0.8137"
"274.4000","4.5694","0.8071"
"275.8000","4.5932","0.8046"
"277.2000","4.6164","0.8024"
"278.6000","4.6398","0.7997"
"280.0000","4.6631","0.7977"
"281.4000","4.6869","0.7991"
"282.8000","4.7099","0.7936"
"284.2000","4.7328","0.7882"
"285.6000","4.7564","0.7862"
"287.0000","4.7798","0.7853"
"288.4000","4.8031","0.7837"
"289.8000","4.8261","0.7788"
"291.2000","4.8500","0.7750"
"292.6000","4.8735","0.7715"
"294.0000","4.8966","0.7664"
"295.4000","4.9197","0.7613"
"296.8000","4.9434","0.7595"
"298.2000","4.9664","0.7556"
"299.6000","4.9896","0.7529"
"301.0000","5.0129","0.7502"
"302.4000","5.0366","0.7499"
"303.8000","5.0598","0.7461"
"305.2000","5.0831","0.7414"
"306.6000","5.1068","0.7382"
"308.0000","5.1303","0.7352"
"309.4000","5.1531","0.7309"
"310.8000","5.1762","0.7270"
"312.2000","5.1998","0.7253"
"313.6000","5.2231","0.7234"
"315.0000","5.2463","0.7191"
"316.4000","5.2695","0.7142"
"317.8000","5.2936","0.7152"
"319.2000","5.3169","0.7141"
"320.6000","5.3399","0.7098"
"322.0000","5.3633","0.7088"
"323.4000","5.3867","0.7072"
"324.8000","5.4097","0.7030"
"326.2000","5.4328","0.6987"
"327.6000","5.4565","0.6983"
"329.0000","5.4800","0.6958"
"330.4000","5.5032","0.6928"
"331.8000","5.5264","0.6893"
"333.2000","5.5503","0.6894"
"334.6000","5.5735","0.6862"
"336.0000","5.5963","0.6797"
"337.4000","5.6196","0.6746"
"338.8000","5.6432","0.6737"
"340.2000","5.6665","0.6710"
"341.6000","5.6895","0.6679"
"343.0000","5.7132","0.6676"
"344.4000","5.7370","0.6688"
"345.8000","5.7601","0.6667"
"347.2000","5.7830","0.6635"
"348.6000","5.8068","0.6640"
"350.0000","5.8299","0.6603"
"351.4000","5.8531","0.6567"
"352.8000","5.8760","0.6519"
"354.2000","5.9000","0.6507"
"355.6000","5.9233","0.6469"
"357.0000","5.9465","0.6405"
"358.4000","5.9700","0.6351"
"359.8000","5.9936","0.6327"
"361.2000","6.0165","0.6287"
"362.6000","6.0395","0.6251"
"364.0000","6.0631","0.6233"
"365.4000","6.0865","0.6220"
"366.8000","6.1097","0.6192"
"368.2000","6.1328","0.6133"
"369.6000","6.1567","0.6126"
"371.0000","6.1802","0.6093"
"372.4000","6.2032","0.6030"
"373.8000","6.2264","0.5979"
"375.2000","6.2500","0.5965"
"376.6000","6.2731","0.5922"
"378.0000","6.2962","0.5882"
"379.4000","6.3196","0.5859"
"380.8000","6.3433","0.5857"
"382.2000","6.3667","0.5832"
"383.6000","6.3898","0.5792"
"385.0000","6.4136","0.5794"
"386.4000","6.4369","0.5765"
"387.8000","6.4597","0.5722"
"389.2000","6.4829","0.5680"
"390.6000","6.5064","0.5653"
"392.0000","6.5298","0.5629"
"393.4000","6.5530","0.5588"
"394.8000","6.5763","0.5547"
"396.2000","6.6002","0.5548"
"397.6000","6.6235","0.5523"
"399.0000","6.6464","0.5500"
"400.4000","6.6699","0.5482"
"401.8000","6.6932","0.5453"
"403.2000","6.7163","0.5432"
"404.6000","6.7395","0.5410"
"406.0000","6.7631","0.5422"
"407.4000","6.7866","0.5412"
"408.8000","6.8098","0.5395"
"410.2000","6.8331","0.5381"
"410.4690","6.8376","0.5387"

File: FLAX TENSILE_3.csv
Time,Displacement,Force
(s),(mm),(kN)
"0.0000","0.0000","0.0115"
"1.4000","0.0203","0.1111"
"2.8000","0.0439","0.2211"
"4.2000","0.0675","0.3275"
"5.6000","0.0907","0.4265"
"7.0000","0.1141","0.5238"
"8.4000","0.1373","0.6141"
"9.8000","0.1606","0.7001"
"11.2000","0.1838","0.7774"
"12.6000","0.2070","0.8483"
"14.0000","0.2303","0.9103"
"15.4000","0.2541","0.9675"
"16.8000","0.2774","1.0147"
"18.2000","0.3005","1.0485"
"19.6000","0.3242","1.0739"
"21.0000","0.3476","1.1000"
"22.4000","0.3704","1.1211"
"23.8000","0.3936","1.1442"
"25.2000","0.4173","1.1697"
"26.6000","0.4405","1.1981"
"28.0000","0.4638","1.2272"
"29.4000","0.4870","1.2605"
"30.8000","0.5110","1.2990"
"32.2000","0.5342","1.3339"
"33.6000","0.5571","1.3702"
"35.0000","0.5806","1.4085"
"36.4000","0.6041","1.4494"
"37.8000","0.6272","1.4882"
"39.2000","0.6503","1.5269"
"40.6000","0.6738","1.5678"
"42.0000","0.6975","1.6102"
"43.4000","0.7207","1.6497"
"44.8000","0.7438","1.6888"
"46.2000","0.7677","1.7296"
"47.6000","0.7907","1.7667"
"49.0000","0.8137","1.8027"
"50.4000","0.8370","1.8399"
"51.8000","0.8606","1.8779"
"53.2000","0.8839","1.9143"
"54.6000","0.9070","1.9497"
"56.0000","0.9306","1.9873"
"57.4000","0.9544","2.0225"
"58.8000","0.9773","2.0532"
"60.2000","1.0004","2.0843"
"61.6000","1.0241","2.1178"
"63.0000","1.0472","2.1488"
"64.4000","1.0703","2.1812"
"65.8000","1.0936","2.2139"
"67.2000","1.1173","2.2485"
"68.6000","1.1408","2.2815"
"70.0000","1.1639","2.3135"
"71.4000","1.1873","2.3448"
"72.8000","1.2110","2.3770"
"74.2000","1.2339","2.4055"
"75.6000","1.2569","2.4314"
"77.0000","1.2805","2.4611"
"78.4000","1.3039","2.4870"
"79.8000","1.3273","2.5095"
"81.2000","1.3503","2.5304"
"82.6000","1.3743","2.5542"
"84.0000","1.3978","2.5764"
"85.4000","1.4206","2.5943"
"86.8000","1.4437","2.6117"
"88.2000","1.4675","2.6325"
"89.6000","1.4904","2.6496"
"91.0000","1.5137","2.6649"
"92.4000","1.5370","2.6775"
"93.8000","1.5607","2.6915"
"95.2000","1.5841","2.7016"
"96.6000","1.6072","2.7106"
"98.0000","1.6309","2.7254"
"99.4000","1.6542","2.7348"
"100.8000","1.6771","2.7420"
"102.2000","1.7003","2.7485"
"103.6000","1.7239","2.7564"
"105.0000","1.7472","2.7619"
"106.4000","1.7704","2.7664"
"107.8000","1.7938","2.7678"
"109.2000","1.8177","2.7689"
"110.6000","1.8408","2.7632"
"112.0000","1.8638","2.7516"
"113.4000","1.8873","2.7382"
"114.8000","1.9106","2.7211"
"116.2000","1.9338","2.7021"
"117.6000","1.9569","2.6798"
"119.0000","1.9806","2.6606"
"120.4000","2.0042","2.6415"
"121.8000","2.0275","2.6178"
"123.2000","2.0505","2.5902"
"124.6000","2.0744","2.5677"
"126.0000","2.0974","2.5408"
"127.4000","2.1202","2.5122"
"128.8000","2.1437","2.4891"
"130.2000","2.1672","2.4637"
"131.6000","2.1906","2.4328"
"133.0000","2.2137","2.4015"
"134.4000","2.2374","2.3732"
"135.8000","2.2611","2.3469"
"137.2000","2.2841","2.3221"
"138.6000","2.3071","2.2920"
"140.0000","2.3307","2.2703"
"141.4000","2.3538","2.2493"
"142.8000","2.3770","2.2254"
"144.2000","2.4003","2.1978"
"145.6000","2.4241","2.1731"
"147.0000","2.4475","2.1467"
"148.4000","2.4705","2.1256"
"149.8000","2.4940","2.1100"
"151.2000","2.5176","2.0953"
"152.6000","2.5405","2.0807"
"154.0000","2.5635","2.0694"
"155.4000","2.5871","2.0620"
"156.8000","2.6106","2.0531"
"158.2000","2.6339","2.0438"
"159.6000","2.6570","2.0309"
"161.0000","2.6810","2.0237"
"162.4000","2.7043","2.0151"
"163.8000","2.7273","2.0036"
"165.2000","2.7504","1.9919"
"166.6000","2.7741","1.9854"
"168.0000","2.7970","1.9720"
"169.4000","2.8203","1.9603"
"170.8000","2.8438","1.9500"
"172.2000","2.8675","1.9415"
"173.6000","2.8907","1.9296"
"175.0000","2.9139","1.9203"
"176.4000","2.9376","1.9114"
"177.8000","2.9607","1.8992"
"179.2000","2.9837","1.8885"
"180.6000","3.0069","1.8791"
"182.0000","3.0306","1.8733"
"183.4000","3.0539","1.8661"
"184.8000","3.0771","1.8576"
"186.2000","3.1005","1.8479"
"187.6000","3.1244","1.8387"
"189.0000","3.1475","1.8276"
"190.4000","3.1704","1.8152"
"191.8000","3.1939","1.8069"
"193.2000","3.2173","1.7963"
"194.6000","3.2404","1.7837"
"196.0000","3.2636","1.7709"
"197.4000","3.2873","1.7547"
"198.8000","3.3108","1.7401"
"200.2000","3.3341","1.7249"
"201.6000","3.3572","1.7095"
"203.0000","3.3810","1.7028"
"204.4000","3.4039","1.6902"
"205.8000","3.4269","1.6803"
"207.2000","3.4504","1.6756"
"208.6000","3.4739","1.6726"
"210.0000","3.4973","1.6670"
"211.4000","3.5204","1.6633"
"212.8000","3.5442","1.6652"
"214.2000","3.5677","1.6628"
"215.6000","3.5907","1.6556"
"217.0000","3.6137","1.6480"
"218.4000","3.6374","1.6438"
"219.8000","3.6605","1.6362"
"221.2000","3.6836","1.6297"
"222.6000","3.7070","1.6205"
"224.0000","3.7309","1.6140"
"225.4000","3.7542","1.6053"
"226.8000","3.7772","1.5922"
"228.2000","3.8008","1.5841"
"229.6000","3.8243","1.5807"
"231.0000","3.8472","1.5710"
"232.4000","3.8702","1.5635"
"233.8000","3.8939","1.5631"
"235.2000","3.9173","1.5579"
"236.6000","3.9406","1.5535"
"238.0000","3.9637","1.5495"
"239.4000","3.9877","1.5512"
"240.8000","4.0109","1.5487"
"242.2000","4.0338","1.5449"
"243.6000","4.0572","1.5428"
"245.0000","4.0807","1.5413"
"246.4000","4.1038","1.5349"
"247.8000","4.1269","1.5285"
"249.2000","4.1505","1.5224"
"250.6000","4.1742","1.5185"
"252.0000","4.1975","1.5114"
"253.4000","4.2206","1.5023"
"254.8000","4.2443","1.4928"
"256.2000","4.2674","1.4815"
"257.6000","4.2903","1.4677"
"259.0000","4.3136","1.4577"
"260.4000","4.3373","1.4504"
"261.8000","4.3606","1.4403"
"263.2000","4.3838","1.4328"
"264.6000","4.4072","1.4227"
"266.0000","4.4310","1.4177"
"267.4000","4.4540","1.4103"
"268.8000","4.4770","1.4048"
"270.2000","4.5006","1.4063"
"271.6000","4.5239","1.4074"
"273.0000","4.5471","1.4067"
"274.4000","4.5702","1.4034"
"275.8000","4.5940","1.4030"
"277.2000","4.6176","1.4016"
"278.6000","4.6406","1.3961"
"280.0000","4.6640","1.3898"
"281.4000","4.6876","1.3869"
"282.8000","4.7105","1.3791"
"284.2000","4.7336","1.3698"
"285.6000","4.7571","1.3641"
"287.0000","4.7806","1.3618"
"288.4000","4.8039","1.3568"
"289.8000","4.8269","1.3499"
"291.2000","4.8508","1.3472"
"292.6000","4.8745","1.3418"
"294.0000","4.8973","1.3327"
"295.4000","4.9203","1.3254"
"296.8000","4.9440","1.3216"
"298.2000","4.9672","1.3146"
"299.6000","4.9903","1.3085"
"301.0000","5.0136","1.3043"
"302.4000","5.0375","1.3038"
"303.8000","5.0609","1.3019"
"305.2000","5.0838","1.2963"
"306.6000","5.1075","1.2955"
"308.0000","5.1309","1.2941"
"309.4000","5.1538","1.2888"
"310.8000","5.1769","1.2843"
"312.2000","5.2006","1.2819"
"313.6000","5.2239","1.2773"
"315.0000","5.2472","1.2732"
"316.4000","5.2704","1.2701"
"317.8000","5.2944","1.2705"
"319.2000","5.3176","1.2662"
"320.6000","5.3405","1.2582"
"322.0000","5.3639","1.2518"
"323.4000","5.3874","1.2496"
"324.8000","5.4104","1.2434"
"326.2000","5.4336","1.2366"
"327.6000","5.4572","1.2312"
"329.0000","5.4810","1.2272"
"330.4000","5.5041","1.2206"
"331.8000","5.5271","1.2148"
"333.2000","5.5510","1.2136"
"334.6000","5.5740","1.2111"
"336.0000","5.5970","1.2083"
"337.4000","5.6202","1.2064"
"338.8000","5.6439","1.2068"
"340.2000","5.6673","1.2042"
"341.6000","5.6904","1.1991"
"343.0000","5.7140","1.1974"
"344.4000","5.7378","1.1992"
"345.8000","5.7607","1.1958"
"347.2000","5.7836","1.1907"
"348.6000","5.8073","1.1904"
"350.0000","5.8305","1.1871"
"351.4000","5.8537","1.1836"
"352.8000","5.8769","1.1818"
"354.2000","5.9006","1.1806"
"355.6000","5.9242","1.1771"
"357.0000","5.9473","1.1700"
"358.4000","5.9706","1.1668"
"359.8000","5.9942","1.1668"
"361.2000","6.0173","1.1614"
"362.6000","6.0402","1.1534"
"364.0000","6.0638","1.1496"
"365.4000","6.0873","1.1460"
"366.8000","6.1106","1.1406"
"368.2000","6.1337","1.1346"
"369.6000","6.1576","1.1342"
"371.0000","6.1811","1.1326"
"372.4000","6.2040","1.1277"
"373.8000","6.2270","1.1210"
"375.2000","6.2507","1.1199"
"376.6000","6.2738","1.1168"
"378.0000","6.2969","1.1147"
"379.4000","6.3203","1.1134"
"380.8000","6.3441","1.1157"
"382.2000","6.3674","1.1145"
"383.6000","6.3905","1.1131"
"385.0000","6.4142","1.1119"
"386.4000","6.4374","1.1086"
"387.8000","6.4604","1.1026"
"389.2000","6.4836","1.0972"
"390.6000","6.5072","1.0940"
"392.0000","6.5306","1.0887"
"392.1080","6.5324","1.0889"