Folder: CompositeTensileTests/DestructiveTests/Tensile/FLAX TENSILE.is_qtest_Exports (part 2)

File: FLAX TENSILE_4.csv
Time,Displacement,Force
(s),(mm),(kN)
"0.0000","-0.0041","0.1262"
"1.5000","0.0186","0.2425"
"3.0000","0.0434","0.3662"
"4.5000","0.0682","0.4875"
"6.0000","0.0931","0.6045"
"7.5000","0.1181","0.7228"
"9.0000","0.1431","0.8349"
"10.5000","0.1682","0.9465"
"12.0000","0.1933","1.0556"
"13.5000","0.2184","1.1615"
"15.0000","0.2434","1.2637"
"16.5000","0.2685","1.3629"
"18.0000","0.2932","1.4561"
"19.5000","0.3181","1.5457"
"21.0000","0.3429","1.6330"
"22.5000","0.3678","1.7166"
"24.0000","0.3930","1.7988"
"25.5000","0.4180","1.8757"
"27.0000","0.4433","1.9505"
"28.5000","0.4685","2.0215"
"30.0000","0.4937","2.0885"
"31.5000","0.5188","2.1504"
"33.0000","0.5435","2.2097"
"34.5000","0.5682","2.2669"
"36.0000","0.5931","2.3245"
"37.5000","0.6180","2.3790"
"39.0000","0.6429","2.4328"
"40.5000","0.6679","2.4876"
"42.0000","0.6930","2.5396"
"43.5000","0.7180","2.5902"
"45.0000","0.7432","2.6394"
"46.5000","0.7684","2.6840"
"48.0000","0.7935","2.7257"
"49.5000","0.8185","2.7644"
"51.0000","0.8433","2.7998"
"52.5000","0.8682","2.8323"
"54.0000","0.8932","2.8648"
"55.5000","0.9182","2.8979"
"57.0000","0.9431","2.9310"
"58.5000","0.9682","2.9643"
"60.0000","0.9932","2.9938"
"61.5000","1.0182","3.0194"
"63.0000","1.0431","3.0397"
"64.5000","1.0680","3.0595"
"66.0000","1.0930","3.0808"
"67.5000","1.1181","3.1058"
"69.0000","1.1432","3.1303"
"70.5000","1.1683","3.1573"
"72.0000","1.1934","3.1924"
"73.5000","1.2184","3.2281"
"75.0000","1.2435","3.2629"
"76.5000","1.2686","3.2977"
"78.0000","1.2934","3.3291"
"79.5000","1.3183","3.3639"
"81.0000","1.3430","3.3996"
"82.5000","1.3679","3.4376"
"84.0000","1.3928","3.4742"
"85.5000","1.4179","3.5120"
"87.0000","1.4430","3.5475"
"88.5000","1.4685","3.5851"
"90.0000","1.4938","3.6196"
"91.5000","1.5189","3.6475"
"93.0000","1.5436","3.6683"
"94.5000","1.5684","3.6909"
"96.0000","1.5932","3.7161"
"97.5000","1.6181","3.7471"
"99.0000","1.6430","3.7802"
"100.5000","1.6679","3.8143"
"102.0000","1.6929","3.8493"
"103.5000","1.7179","3.8847"
"105.0000","1.7431","3.9204"
"106.5000","1.7683","3.9553"
"108.0000","1.7934","3.9885"
"109.5000","1.8184","4.0193"
"111.0000","1.8433","4.0503"
"112.5000","1.8683","4.0775"
"114.0000","1.8932","4.1073"
"115.5000","1.9181","4.1367"
"117.0000","1.9431","4.1677"
"118.5000","1.9681","4.1968"
"120.0000","1.9933","4.2249"
"121.5000","2.0183","4.2515"
"123.0000","2.0432","4.2740"
"124.5000","2.0680","4.2991"
"126.0000","2.0929","4.3232"
"127.5000","2.1179","4.3486"
"129.0000","2.1431","4.3765"
"130.5000","2.1682","4.4006"
"132.0000","2.1933","4.4255"
"133.5000","2.2184","4.4503"
"135.0000","2.2435","4.4727"
"136.5000","2.2685","4.4938"
"138.0000","2.2934","4.5132"
"139.5000","2.3183","4.5303"
"141.0000","2.3431","4.5410"
"142.5000","2.3679","4.5484"
"144.0000","2.3929","4.5554"
"145.5000","2.4178","4.5567"
"147.0000","2.4430","4.5504"
"148.5000","2.4682","4.5381"
"150.0000","2.4934","4.5260"
"151.5000","2.5186","4.5158"
"153.0000","2.5438","4.5175"
"154.5000","2.5686","4.5231"
"156.0000","2.5934","4.5269"
"157.5000","2.6183","4.5211"
"159.0000","2.6431","4.5016"
"160.5000","2.6680","4.4743"
"162.0000","2.6930","4.4401"
"163.5000","2.7180","4.4111"
"165.0000","2.7430","4.3801"
"166.5000","2.7681","4.3578"
"168.0000","2.7932","4.3399"
"169.5000","2.8183","4.3083"
"171.0000","2.8433","4.2867"
"172.5000","2.8683","4.2662"
"174.0000","2.8932","4.2439"
"175.5000","2.9183","4.2189"
"177.0000","2.9432","4.1963"
"178.5000","2.9683","4.1763"
"180.0000","2.9933","4.1511"
"181.5000","3.0183","4.1351"
"183.0000","3.0432","4.1138"
"184.5000","3.0681","4.0880"
"186.0000","3.0929","4.0692"
"187.5000","3.1179","4.0443"
"189.0000","3.1430","4.0035"
"190.5000","3.1681","3.9634"
"192.0000","3.1933","3.9277"
"193.5000","3.2185","3.8868"
"195.0000","3.2436","3.8465"
"196.5000","3.2687","3.8047"
"198.0000","3.2934","3.7772"
"199.5000","3.3184","3.7520"
"201.0000","3.3432","3.7236"
"202.5000","3.3681","3.6922"
"204.0000","3.3930","3.6582"
"205.5000","3.4178","3.6230"
"207.0000","3.4429","3.5894"
"208.5000","3.4679","3.5573"
"210.0000","3.4934","3.5233"
"211.5000","3.5186","3.4967"
"213.0000","3.5437","3.4755"
"214.5000","3.5687","3.4618"
"216.0000","3.5935","3.4563"
"217.5000","3.6182","3.4499"
"219.0000","3.6432","3.4429"
"220.5000","3.6680","3.4310"
"222.0000","3.6932","3.4227"
"223.5000","3.7180","3.4151"
"225.0000","3.7431","3.4083"
"226.5000","3.7680","3.3963"
"228.0000","3.7931","3.3781"
"229.5000","3.8182","3.3586"
"231.0000","3.8432","3.3431"
"232.5000","3.8683","3.3276"
"234.0000","3.8933","3.3138"
"235.5000","3.9182","3.3033"
"237.0000","3.9433","3.2987"
"238.5000","3.9683","3.2928"
"240.0000","3.9934","3.2871"
"241.5000","4.0183","3.2763"
"243.0000","4.0434","3.2652"
"244.5000","4.0682","3.2488"
"246.0000","4.0931","3.2328"
"247.5000","4.1179","3.2101"
"249.0000","4.1429","3.1872"
"250.5000","4.1680","3.1665"
"252.0000","4.1931","3.1486"
"253.5000","4.2184","3.1255"
"255.0000","4.2435","3.0992"
"256.5000","4.2688","3.0776"
"258.0000","4.2937","3.0587"
"259.5000","4.3186","3.0409"
"261.0000","4.3434","3.0257"
"262.5000","4.3683","3.0113"
"264.0000","4.3930","2.9892"
"265.5000","4.4180","2.9764"
"267.0000","4.4429","2.9575"
"268.5000","4.4679","2.9344"
"270.0000","4.4931","2.9178"
"271.5000","4.5183","2.9097"
"273.0000","4.5436","2.9042"
"274.5000","4.5686","2.8997"
"276.0000","4.5936","2.8993"
"277.5000","4.6184","2.8997"
"279.0000","4.6432","2.8975"
"280.5000","4.6682","2.8972"
"282.0000","4.6931","2.8954"
"283.5000","4.7181","2.8927"
"285.0000","4.7430","2.8891"
"286.5000","4.7682","2.8787"
"288.0000","4.7931","2.8615"
"289.5000","4.8181","2.8420"
"291.0000","4.8431","2.8241"
"292.5000","4.8681","2.8141"
"294.0000","4.8932","2.8056"
"295.5000","4.9183","2.7974"
"297.0000","4.9433","2.7839"
"298.5000","4.9682","2.7761"
"300.0000","4.9934","2.7697"
"301.5000","5.0184","2.7641"
"303.0000","5.0435","2.7536"
"304.5000","5.0684","2.7460"
"306.0000","5.0932","2.7361"
"307.5000","5.1180","2.7180"
"309.0000","5.1429","2.7045"
"310.5000","5.1678","2.6957"
"312.0000","5.1931","2.6822"
"313.5000","5.2182","2.6619"
"315.0000","5.2435","2.6450"
"316.5000","5.2687","2.6290"
"318.0000","5.2938","2.6157"
"319.5000","5.3186","2.6034"
"321.0000","5.3435","2.5928"
"322.5000","5.3683","2.5720"
"324.0000","5.3932","2.5550"
"325.5000","5.4180","2.5410"
"327.0000","5.4429","2.5322"
"328.5000","5.4679","2.5164"
"330.0000","5.4929","2.5044"
"331.5000","5.5181","2.4949"
"333.0000","5.5433","2.4887"
"334.5000","5.5685","2.4864"
"336.0000","5.5935","2.4861"
"337.5000","5.6184","2.4820"
"339.0000","5.6432","2.4753"
"340.5000","5.6682","2.4750"
"342.0000","5.6931","2.4694"
"343.5000","5.7182","2.4631"
"345.0000","5.7431","2.4539"
"346.5000","5.7682","2.4428"
"348.0000","5.7932","2.4282"
"349.5000","5.8182","2.4139"
"351.0000","5.8430","2.4024"
"352.5000","5.8680","2.3889"
"354.0000","5.8931","2.3744"
"355.5000","5.9182","2.3627"
"357.0000","5.9432","2.3474"
"358.5000","5.9683","2.3397"
"360.0000","5.9933","2.3353"
"361.5000","6.0184","2.3270"
"363.0000","6.0435","2.3166"
"364.5000","6.0685","2.3102"
"366.0000","6.0934","2.3057"
"367.5000","6.1182","2.2935"
"369.0000","6.1430","2.2812"
"370.5000","6.1678","2.2670"
"372.0000","6.1928","2.2595"
"373.5000","6.2180","2.2460"
"375.0000","6.2432","2.2283"
"376.5000","6.2685","2.2120"
"378.0000","6.2937","2.2031"
"379.5000","6.3187","2.1953"
"381.0000","6.3435","2.1877"
"382.5000","6.3684","2.1790"
"384.0000","6.3932","2.1664"
"385.5000","6.4181","2.1536"
"387.0000","6.4429","2.1415"
"388.5000","6.4679","2.1268"
"390.0000","6.4929","2.1139"
"391.5000","6.5180","2.1057"
"393.0000","6.5432","2.1028"
"394.5000","6.5683","2.0993"
"396.0000","6.5934","2.0975"
"397.5000","6.6184","2.0948"
"399.0000","6.6434","2.0889"
"400.5000","6.6682","2.0774"
"402.0000","6.6933","2.0736"
"403.5000","6.7182","2.0658"
"405.0000","6.7432","2.0605"
"406.5000","6.7682","2.0525"
"408.0000","6.7933","2.0449"
"409.5000","6.8182","2.0347"
"411.0000","6.8431","2.0241"
"412.5000","6.8679","2.0161"
"414.0000","6.8929","2.0118"
"415.5000","6.9180","2.0006"
"417.0000","6.9432","1.9916"
"418.5000","6.9683","1.9847"
"420.0000","6.9934","1.9774"
"421.5000","7.0186","1.9717"
"423.0000","7.0437","1.9639"
"424.5000","7.0686","1.9592"
"426.0000","7.0935","1.9524"
"427.5000","7.1182","1.9446"
"429.0000","7.1428","1.9317"
"430.5000","7.1679","1.9151"
"432.0000","7.1929","1.8983"
"433.5000","7.2179","1.8875"
"435.0000","7.2430","1.8802"
"436.5000","7.2683","1.8730"
"438.0000","7.2936","1.8671"
"439.5000","7.3188","1.8632"
"441.0000","7.3437","1.8568"
"442.5000","7.3684","1.8502"
"442.5090","7.3686","1.8499"

File: FLAX TENSILE_5.csv
Time,Displacement,Force
(s),(mm),(kN)
"0.0000","0.0000","0.0162"
"0.4000","0.0012","0.0201"
"0.8000","0.0103","0.0666"
"1.2000","0.0170","0.1012"
"1.6000","0.0237","0.1332"
"2.0000","0.0307","0.1667"
"2.4000","0.0373","0.1991"
"2.8000","0.0437","0.2299"
"3.2000","0.0502","0.2619"
"3.6000","0.0570","0.2945"
"4.0000","0.0638","0.3268"
"4.4000","0.0707","0.3591"
"4.8000","0.0772","0.3895"
"5.2000","0.0836","0.4189"
"5.6000","0.0902","0.4485"
"6.0000","0.0971","0.4799"
"6.4000","0.1040","0.5112"
"6.8000","0.1107","0.5406"
"7.2000","0.1170","0.5665"
"7.6000","0.1237","0.5955"
"8.0000","0.1304","0.6239"
"8.4000","0.1372","0.6528"
"8.8000","0.1438","0.6814"
"9.2000","0.1504","0.7097"
"9.6000","0.1573","0.7392"
"10.0000","0.1638","0.7650"
"10.4000","0.1703","0.7925"
"10.8000","0.1768","0.8196"
"11.2000","0.1838","0.8480"
"11.6000","0.1908","0.8785"
"12.0000","0.1971","0.9045"
"12.4000","0.2037","0.9299"
"12.8000","0.2101","0.9549"
"13.2000","0.2172","0.9841"
"13.6000","0.2242","1.0124"
"14.0000","0.2306","1.0380"
"14.4000","0.2368","1.0621"
"14.8000","0.2435","1.0869"
"15.2000","0.2506","1.1162"
"15.6000","0.2575","1.1427"
"16.0000","0.2639","1.1673"
"16.4000","0.2701","1.1904"
"16.8000","0.2771","1.2182"
"17.2000","0.2838","1.2427"
"17.6000","0.2905","1.2688"
"18.0000","0.2970","1.2930"
"18.4000","0.3038","1.3194"
"18.8000","0.3108","1.3453"
"19.2000","0.3170","1.3680"
"19.6000","0.3237","1.3933"
"20.0000","0.3302","1.4169"
"20.4000","0.3373","1.4435"
"20.8000","0.3441","1.4695"
"21.2000","0.3504","1.4907"
"21.6000","0.3569","1.5152"
"22.0000","0.3634","1.5378"
"22.4000","0.3707","1.5645"
"22.8000","0.3776","1.5901"
"23.2000","0.3839","1.6123"
"23.6000","0.3901","1.6327"
"24.0000","0.3970","1.6582"
"24.4000","0.4039","1.6831"
"24.8000","0.4107","1.7076"
"25.2000","0.4172","1.7286"
"25.6000","0.4236","1.7514"
"26.0000","0.4305","1.7757"
"26.4000","0.4371","1.7991"
"26.8000","0.4439","1.8230"
"27.2000","0.4503","1.8455"
"27.6000","0.4572","1.8701"
"28.0000","0.4640","1.8922"
"28.4000","0.4704","1.9133"
"28.8000","0.4770","1.9362"
"29.2000","0.4835","1.9582"
"29.6000","0.4908","1.9845"
"30.0000","0.4976","2.0083"
"30.4000","0.5038","2.0291"
"30.8000","0.5101","2.0483"
"31.2000","0.5168","2.0718"
"31.6000","0.5240","2.0970"
"32.0000","0.5309","2.1205"
"32.4000","0.5371","2.1416"
"32.8000","0.5435","2.1619"
"33.2000","0.5503","2.1852"
"33.6000","0.5573","2.2076"
"34.0000","0.5639","2.2307"
"34.4000","0.5704","2.2517"
"34.8000","0.5771","2.2745"
"35.2000","0.5839","2.2967"
"35.6000","0.5905","2.3183"
"36.0000","0.5971","2.3404"
"36.4000","0.6036","2.3610"
"36.8000","0.6107","2.3854"
"37.2000","0.6174","2.4071"
"37.6000","0.6236","2.4278"
"38.0000","0.6302","2.4482"
"38.4000","0.6369","2.4706"
"38.8000","0.6442","2.4949"
"39.2000","0.6510","2.5181"
"39.6000","0.6569","2.5350"
"40.0000","0.6634","2.5558"
"40.4000","0.6703","2.5785"
"40.8000","0.6773","2.6018"
"41.2000","0.6843","2.6258"
"41.6000","0.6904","2.6449"
"42.0000","0.6969","2.6660"
"42.4000","0.7037","2.6865"
"42.8000","0.7106","2.7092"
"43.2000","0.7172","2.7292"
"43.6000","0.7237","2.7503"
"44.0000","0.7305","2.7713"
"44.4000","0.7373","2.7933"
"44.8000","0.7438","2.8138"
"45.2000","0.7503","2.8347"
"45.6000","0.7570","2.8541"
"46.0000","0.7642","2.8778"
"46.4000","0.7706","2.8978"
"46.8000","0.7770","2.9172"
"47.2000","0.7835","2.9365"
"47.6000","0.7902","2.9589"
"48.0000","0.7974","2.9815"
"48.4000","0.8042","3.0025"
"48.8000","0.8103","3.0199"
"49.2000","0.8167","3.0389"
"49.6000","0.8237","3.0610"
"50.0000","0.8306","3.0820"
"50.4000","0.8373","3.1037"
"50.8000","0.8436","3.1225"
"51.2000","0.8502","3.1422"
"51.6000","0.8571","3.1637"
"52.0000","0.8638","3.1834"
"52.4000","0.8704","3.2035"
"52.8000","0.8770","3.2230"
"53.2000","0.8840","3.2450"
"53.6000","0.8906","3.2640"
"54.0000","0.8970","3.2828"
"54.4000","0.9036","3.3021"
"54.8000","0.9103","3.3217"
"55.2000","0.9175","3.3447"
"55.6000","0.9241","3.3644"
"56.0000","0.9303","3.3820"
"56.4000","0.9367","3.4004"
"56.8000","0.9436","3.4208"
"57.2000","0.9508","3.4438"
"57.6000","0.9573","3.4618"
"58.0000","0.9636","3.4794"
"58.4000","0.9701","3.4974"
"58.8000","0.9771","3.5184"
"59.2000","0.9840","3.5384"
"59.6000","0.9906","3.5573"
"60.0000","0.9970","3.5761"
"60.4000","1.0037","3.5948"
"60.8000","1.0105","3.6142"
"61.2000","1.0171","3.6344"
"61.6000","1.0238","3.6518"
"62.0000","1.0304","3.6705"
"62.4000","1.0374","3.6909"
"62.8000","1.0439","3.7104"
"63.2000","1.0503","3.7278"
"63.6000","1.0569","3.7471"
"64.0000","1.0637","3.7660"
"64.4000","1.0710","3.7886"
"64.8000","1.0772","3.8037"
"65.2000","1.0836","3.8208"
"65.6000","1.0901","3.8379"
"66.0000","1.0971","3.8574"
"66.4000","1.1042","3.8791"
"66.8000","1.1107","3.8962"
"67.2000","1.1170","3.9136"
"67.6000","1.1236","3.9318"
"68.0000","1.1305","3.9513"
"68.4000","1.1373","3.9699"
"68.8000","1.1439","3.9886"
"69.2000","1.1503","4.0048"
"69.6000","1.1572","4.0246"
"70.0000","1.1638","4.0421"
"70.4000","1.1704","4.0604"
"70.8000","1.1771","4.0779"
"71.2000","1.1837","4.0953"
"71.6000","1.1908","4.1166"
"72.0000","1.1971","4.1316"
"72.4000","1.2036","4.1495"
"72.8000","1.2102","4.1668"
"73.2000","1.2171","4.1871"
"73.6000","1.2243","4.2076"
"74.0000","1.2306","4.2232"
"74.4000","1.2369","4.2385"
"74.8000","1.2435","4.2572"
"75.2000","1.2505","4.2765"
"75.6000","1.2575","4.2951"
"76.0000","1.2640","4.3128"
"76.4000","1.2703","4.3294"
"76.8000","1.2769","4.3465"
"77.2000","1.2839","4.3652"
"77.6000","1.2904","4.3829"
"78.0000","1.2972","4.4018"
"78.4000","1.3037","4.4180"
"78.8000","1.3106","4.4366"
"79.2000","1.3171","4.4531"
"79.6000","1.3237","4.4708"
"80.0000","1.3303","4.4877"
"80.4000","1.3371","4.5064"
"80.8000","1.3442","4.5261"
"81.2000","1.3505","4.5426"
"81.6000","1.3569","4.5583"
"82.0000","1.3634","4.5749"
"82.4000","1.3705","4.5955"
"82.8000","1.3776","4.6133"
"83.2000","1.3839","4.6287"
"83.6000","1.3901","4.6440"
"84.0000","1.3968","4.6613"
"84.4000","1.4039","4.6809"
"84.8000","1.4108","4.6998"
"85.2000","1.4173","4.7168"
"85.6000","1.4235","4.7318"
"86.0000","1.4304","4.7505"
"86.4000","1.4371","4.7675"
"86.8000","1.4438","4.7845"
"87.2000","1.4504","4.8019"
"87.6000","1.4570","4.8177"
"88.0000","1.4640","4.8378"
"88.4000","1.4705","4.8525"
"88.8000","1.4770","4.8700"
"89.2000","1.4836","4.8867"
"89.6000","1.4905","4.9038"
"90.0000","1.4976","4.9234"
"90.4000","1.5038","4.9368"
"90.8000","1.5102","4.9526"
"91.2000","1.5167","4.9682"
"91.6000","1.5239","4.9878"
"92.0000","1.5310","5.0056"
"92.4000","1.5371","5.0191"
"92.8000","1.5435","5.0345"
"93.2000","1.5502","5.0510"
"93.6000","1.5572","5.0696"
"94.0000","1.5641","5.0866"
"94.4000","1.5707","5.1022"
"94.8000","1.5768","5.1166"
"95.2000","1.5838","5.1343"
"95.6000","1.5905","5.1527"
"96.0000","1.5971","5.1675"
"96.4000","1.6038","5.1840"
"96.8000","1.6105","5.1997"
"97.2000","1.6174","5.2182"
"97.6000","1.6238","5.2328"
"98.0000","1.6302","5.2472"
"98.4000","1.6368","5.2621"
"98.8000","1.6440","5.2757"
"99.2000","1.6509","5.2912"
"99.6000","1.6571","5.3011"
"99.8380","1.6611","4.7131"
"99.8460","1.6612","3.5858"
"99.8490","1.6613","3.1298"

File: FLAX TENSILE_6.csv
Time,Displacement,Force
(s),(mm),(kN)
"0.0000","0.0000","0.0859"
"0.4000","0.0013","0.0892"
"0.8000","0.0105","0.1113"
"1.2000","0.0173","0.1285"
"1.6000","0.0243","0.1469"
"2.0000","0.0313","0.1655"
"2.4000","0.0375","0.1826"
"2.8000","0.0442","0.1999"
"3.2000","0.0507","0.2157"
"3.6000","0.0574","0.2296"
"4.0000","0.0643","0.2441"
"4.4000","0.0709","0.2597"
"4.8000","0.0777","0.2751"
"5.2000","0.0842","0.2908"
"5.6000","0.0908","0.3055"
"6.0000","0.0975","0.3217"
"6.4000","0.1041","0.3369"
"6.8000","0.1110","0.3536"
"7.2000","0.1177","0.3686"
"7.6000","0.1242","0.3840"
"8.0000","0.1308","0.3998"
"8.4000","0.1374","0.4163"
"8.8000","0.1442","0.4319"
"9.2000","0.1511","0.4484"
"9.6000","0.1576","0.4644"
"10.0000","0.1641","0.4806"
"10.4000","0.1707","0.4963"
"10.8000","0.1773","0.5122"
"11.2000","0.1843","0.5293"
"11.6000","0.1913","0.5480"
"12.0000","0.1975","0.5627"
"12.4000","0.2039","0.5790"
"12.8000","0.2106","0.5954"
"13.2000","0.2177","0.6135"
"13.6000","0.2245","0.6327"
"14.0000","0.2309","0.6484"
"14.4000","0.2373","0.6649"
"14.8000","0.2441","0.6830"
"15.2000","0.2509","0.7018"
"15.6000","0.2576","0.7190"
"16.0000","0.2642","0.7374"
"16.4000","0.2708","0.7536"
"16.8000","0.2777","0.7721"
"17.2000","0.2841","0.7890"
"17.6000","0.2908","0.8063"
"18.0000","0.2973","0.8250"
"18.4000","0.3043","0.8441"
"18.8000","0.3113","0.8634"
"19.2000","0.3174","0.8800"
"19.6000","0.3240","0.8978"
"20.0000","0.3305","0.9146"
"20.4000","0.3379","0.9357"
"20.8000","0.3446","0.9542"
"21.2000","0.3508","0.9709"
"21.6000","0.3572","0.9880"
"22.0000","0.3640","1.0060"
"22.4000","0.3712","1.0282"
"22.8000","0.3778","1.0466"
"23.2000","0.3842","1.0647"
"23.6000","0.3906","1.0801"
"24.0000","0.3976","1.1011"
"24.4000","0.4042","1.1202"
"24.8000","0.4110","1.1391"
"25.2000","0.4175","1.1565"
"25.6000","0.4243","1.1763"
"26.0000","0.4310","1.1955"
"26.4000","0.4374","1.2134"
"26.8000","0.4440","1.2318"
"27.2000","0.4506","1.2491"
"27.6000","0.4579","1.2713"
"28.0000","0.4645","1.2901"
"28.4000","0.4708","1.3089"
"28.8000","0.4772","1.3253"
"29.2000","0.4840","1.3442"
"29.6000","0.4912","1.3661"
"30.0000","0.4979","1.3857"
"30.4000","0.5041","1.4015"
"30.8000","0.5105","1.4195"
"31.2000","0.5175","1.4391"
"31.6000","0.5243","1.4595"
"32.0000","0.5311","1.4784"
"32.4000","0.5374","1.4945"
"32.8000","0.5441","1.5135"
"33.2000","0.5509","1.5314"
"33.6000","0.5575","1.5505"
"34.0000","0.5642","1.5675"
"34.4000","0.5708","1.5859"
"34.8000","0.5778","1.6059"
"35.2000","0.5843","1.6229"
"35.6000","0.5907","1.6389"
"36.0000","0.5973","1.6558"
"36.4000","0.6040","1.6740"
"36.8000","0.6114","1.6940"
"37.2000","0.6179","1.7104"
"37.6000","0.6240","1.7239"
"38.0000","0.6305","1.7391"
"38.4000","0.6374","1.7560"
"38.8000","0.6446","1.7750"
"39.2000","0.6511","1.7917"
"39.6000","0.6573","1.8043"
"40.0000","0.6640","1.8207"
"40.4000","0.6710","1.8386"
"40.8000","0.6777","1.8539"
"41.2000","0.6843","1.8702"
"41.6000","0.6908","1.8841"
"42.0000","0.6975","1.8991"
"42.4000","0.7043","1.9141"
"42.8000","0.7108","1.9293"
"43.2000","0.7175","1.9445"
"43.6000","0.7241","1.9590"
"44.0000","0.7312","1.9756"
"44.4000","0.7376","1.9896"
"44.8000","0.7440","2.0028"
"45.2000","0.7506","2.0163"
"45.6000","0.7574","2.0315"
"46.0000","0.7648","2.0477"
"46.4000","0.7711","2.0619"
"46.8000","0.7773","2.0726"
"47.2000","0.7838","2.0859"
"47.6000","0.7908","2.1009"
"48.0000","0.7979","2.1162"
"48.4000","0.8045","2.1304"
"48.8000","0.8106","2.1410"
"49.2000","0.8173","2.1536"
"49.6000","0.8243","2.1677"
"50.0000","0.8310","2.1811"
"50.4000","0.8377","2.1947"
"50.8000","0.8440","2.2045"
"51.2000","0.8509","2.2192"
"51.6000","0.8574","2.2311"
"52.0000","0.8642","2.2435"
"52.4000","0.8706","2.2552"
"52.8000","0.8774","2.2680"
"53.2000","0.8848","2.2834"
"53.6000","0.8908","2.2922"
"54.0000","0.8974","2.3042"
"54.4000","0.9038","2.3143"
"54.8000","0.9108","2.3281"
"55.2000","0.9182","2.3444"
"55.6000","0.9243","2.3535"
"56.0000","0.9305","2.3633"
"56.4000","0.9371","2.3749"
"56.8000","0.9444","2.3893"
"57.2000","0.9512","2.4014"
"57.6000","0.9578","2.4140"
"58.0000","0.9639","2.4235"
"58.4000","0.9707","2.4350"
"58.8000","0.9777","2.4480"
"59.2000","0.9843","2.4600"
"59.6000","0.9909","2.4724"
"60.0000","0.9974","2.4830"
"60.4000","1.0045","2.4970"
"60.8000","1.0108","2.5080"
"61.2000","1.0175","2.5202"
"61.6000","1.0239","2.5300"
"62.0000","1.0309","2.5451"
"62.4000","1.0383","2.5614"
"62.8000","1.0442","2.5701"
"63.2000","1.0507","2.5812"
"63.6000","1.0572","2.5926"
"64.0000","1.0642","2.6069"
"64.4000","1.0713","2.6226"
"64.8000","1.0777","2.6334"
"65.2000","1.0839","2.6437"
"65.6000","1.0906","2.6564"
"66.0000","1.0977","2.6714"
"66.4000","1.1045","2.6837"
"66.8000","1.1110","2.6952"
"67.2000","1.1174","2.7069"
"67.6000","1.1242","2.7196"
"68.0000","1.1308","2.7318"
"68.4000","1.1376","2.7457"
"68.8000","1.1441","2.7580"
"69.2000","1.1509","2.7702"
"69.6000","1.1578","2.7850"
"70.0000","1.1642","2.7962"
"70.4000","1.1707","2.8091"
"70.8000","1.1772","2.8213"
"71.2000","1.1843","2.8365"
"71.6000","1.1914","2.8508"
"72.0000","1.1976","2.8619"
"72.4000","1.2039","2.8729"
"72.8000","1.2106","2.8857"
"73.2000","1.2177","2.9014"
"73.6000","1.2247","2.9163"
"74.0000","1.2309","2.9274"
"74.4000","1.2372","2.9390"
"74.8000","1.2441","2.9541"
"75.2000","1.2509","2.9679"
"75.6000","1.2577","2.9817"
"76.0000","1.2643","2.9942"
"76.4000","1.2707","3.0059"
"76.8000","1.2776","3.0207"
"77.2000","1.2842","3.0336"
"77.6000","1.2909","3.0476"
"78.0000","1.2974","3.0602"
"78.4000","1.3044","3.0746"
"78.8000","1.3112","3.0883"
"79.2000","1.3175","3.1019"
"79.6000","1.3240","3.1136"
"80.0000","1.3305","3.1270"
"80.4000","1.3378","3.1433"
"80.8000","1.3446","3.1581"
"81.2000","1.3508","3.1688"
"81.6000","1.3572","3.1809"
"82.0000","1.3639","3.1950"
"82.4000","1.3711","3.2107"
"82.8000","1.3779","3.2263"
"83.2000","1.3842","3.2385"
"83.6000","1.3906","3.2499"
"84.0000","1.3975","3.2649"
"84.4000","1.4042","3.2785"
"84.8000","1.4110","3.2933"
"85.2000","1.4175","3.3069"
"85.6000","1.4241","3.3197"
"86.0000","1.4309","3.3340"
"86.4000","1.4375","3.3473"
"86.8000","1.4442","3.3618"
"87.2000","1.4506","3.3746"
"87.6000","1.4578","3.3920"
"88.0000","1.4645","3.4030"
"88.4000","1.4707","3.4147"
"88.8000","1.4773","3.4296"
"89.2000","1.4839","3.4428"
"89.6000","1.4913","3.4600"
"90.0000","1.4981","3.4749"
"90.4000","1.5040","3.4853"
"90.8000","1.5106","3.4985"
"91.2000","1.5173","3.5134"
"91.6000","1.5244","3.5298"
"92.0000","1.5313","3.5450"
"92.4000","1.5376","3.5570"
"92.8000","1.5439","3.5674"
"93.2000","1.5508","3.5839"
"93.6000","1.5577","3.5994"
"94.0000","1.5643","3.6131"
"94.4000","1.5709","3.6282"
"94.8000","1.5775","3.6420"
"95.2000","1.5844","3.6563"
"95.6000","1.5909","3.6699"
"96.0000","1.5974","3.6832"
"96.4000","1.6040","3.6981"
"96.8000","1.6112","3.7152"
"97.2000","1.6180","3.7304"
"97.6000","1.6240","3.7417"
"98.0000","1.6305","3.7550"
"98.4000","1.6373","3.7713"
"98.8000","1.6446","3.7886"
"99.2000","1.6511","3.8018"
"99.6000","1.6574","3.8118"
"100.0000","1.6638","3.8260"
"100.4000","1.6708","3.8418"
"100.7180","1.6766","3.5500"
"100.7300","1.6769","2.3165"
"100.7310","1.6769","2.2057"